"text","rt","key_press","block_duration","timing_post_trial","trial_id","trial_type","trial_index","time_elapsed","internal_node_id","exp_id","full_screen","focus_shifts","view_history","mouse_click","stim_duration","exp_stage","stim","coded_response","trial_num","reference","stim_rating","reference_rating","responses","credit_var"
"<div class = centerbox><p class = ""center-block-text"">Welcome to the experiment. This task will take around 15 minutes. Press <strong>enter</strong> to begin.</p></div>","5823","13","5823","0","instruction","poldrack-text","0","5823","0.0-0.0-0.0","dietary_decision","true","0","","","","","","","","","","","",""
"","21767","","","","instruction","poldrack-instructions","1","27591","0.0-0.0-1.0","dietary_decision","true","0","[{""page_index"":0,""viewing_time"":21767}]","","","","","","","","","","",""
"<div class = centerbox><p class = ""center-block-text"">In the next block of trials, rate the healthiness of each food item without regard for its taste. Press <strong>enter</strong> to begin.</p></div>","8191","13","8191","500","start_health","poldrack-text","2","36783","0.0-1.0","dietary_decision","true","0","","","","","","","","","","","",""
"","-1","","4000","500","stim","single-stim-button","3","41306","0.0-2.0","dietary_decision","true","0","","-1","4000","health_rating","wwmuffin","NaN","0","","","","",""
"","2429","","2429","500","stim","single-stim-button","4","44239","0.0-3.0","dietary_decision","true","0","","Healthy","2429","health_rating","grannysmith","1","1","","","","",""
"","1735","","1735","500","stim","single-stim-button","5","46487","0.0-4.0","dietary_decision","true","0","","Very_Unhealthy","1735","health_rating","laysclassic","-2","2","","","","",""
"","1233","","1233","500","stim","single-stim-button","6","48223","0.0-5.0","dietary_decision","true","0","","Very_Unhealthy","1233","health_rating","keeblerrainbow","-2","3","","","","",""
"","2059","","2059","500","stim","single-stim-button","7","50783","0.0-6.0","dietary_decision","true","0","","Very_Unhealthy","2059","health_rating","wheatcrisps","-2","4","","","","",""
"","3399","","3399","500","stim","single-stim-button","8","54687","0.0-7.0","dietary_decision","true","0","","Neutral","3399","health_rating","cherryicecream","0","5","","","","",""
"","1916","","1916","500","stim","single-stim-button","9","57112","0.0-8.0","dietary_decision","true","0","","Neutral","1916","health_rating","specialKbar","0","6","","","","",""
"","2514","","2514","500","stim","single-stim-button","10","60135","0.0-9.0","dietary_decision","true","0","","Unhealthy","2514","health_rating","cookiencream","-1","7","","","","",""
"","-1","","4000","500","stim","single-stim-button","11","64644","0.0-10.0","dietary_decision","true","0","","-1","4000","health_rating","brocollincauliflower","NaN","8","","","","",""
"","1332","","1332","500","stim","single-stim-button","12","66480","0.0-11.0","dietary_decision","true","0","","Unhealthy","1332","health_rating","strussel","-1","9","","","","",""
"","1072","","1072","500","stim","single-stim-button","13","68064","0.0-12.0","dietary_decision","true","0","","Unhealthy","1072","health_rating","ChipsAhoy","-1","10","","","","",""
"","1378","","1378","500","stim","single-stim-button","14","69951","0.0-13.0","dietary_decision","true","0","","Unhealthy","1378","health_rating","KitKat","-1","11","","","","",""
"","2568","","2568","500","stim","single-stim-button","15","73024","0.0-14.0","dietary_decision","true","0","","Unhealthy","2568","health_rating","cookies","-1","12","","","","",""
"","3243","","3243","500","stim","single-stim-button","16","76768","0.0-15.0","dietary_decision","true","0","","Unhealthy","3243","health_rating","blueberryyogart","-1","13","","","","",""
"","2399","","2399","500","stim","single-stim-button","17","79672","0.0-16.0","dietary_decision","true","0","","Unhealthy","2399","health_rating","Lindt","-1","14","","","","",""
"","1865","","1865","500","stim","single-stim-button","18","82040","0.0-17.0","dietary_decision","true","0","","Neutral","1865","health_rating","RiceKrispyTreat","0","15","","","","",""
"","1194","","1194","500","stim","single-stim-button","19","83736","0.0-18.0","dietary_decision","true","0","","Unhealthy","1194","health_rating","Oreos","-1","16","","","","",""
"","1914","","1914","500","stim","single-stim-button","20","86160","0.0-19.0","dietary_decision","true","0","","Unhealthy","1914","health_rating","sbdietbar","-1","17","","","","",""
"","2312","","2312","500","stim","single-stim-button","21","88976","0.0-20.0","dietary_decision","true","0","","Healthy","2312","health_rating","cellery","1","18","","","","",""
"","2423","","2423","500","stim","single-stim-button","22","91912","0.0-21.0","dietary_decision","true","0","","Healthy","2423","health_rating","strawberries","1","19","","","","",""
"","2897","","2897","500","stim","single-stim-button","23","95320","0.0-22.0","dietary_decision","true","0","","Healthy","2897","health_rating","frozenyogart","1","20","","","","",""
"","3095","","3095","500","stim","single-stim-button","24","98928","0.0-23.0","dietary_decision","true","0","","Unhealthy","3095","health_rating","Reeses","-1","21","","","","",""
"","2200","","2200","500","stim","single-stim-button","25","101640","0.0-24.0","dietary_decision","true","0","","Very_Unhealthy","2200","health_rating","Doritosranch","-2","22","","","","",""
"","3476","","3476","500","stim","single-stim-button","26","105616","0.0-25.0","dietary_decision","true","0","","Unhealthy","3476","health_rating","carrots","-1","23","","","","",""
"","1397","","1397","500","stim","single-stim-button","27","107520","0.0-26.0","dietary_decision","true","0","","Healthy","1397","health_rating","orange","1","24","","","","",""
"","2214","","2214","500","stim","single-stim-button","28","110240","0.0-27.0","dietary_decision","true","0","","Healthy","2214","health_rating","mixedyogart","1","25","","","","",""
"","2914","","2914","500","stim","single-stim-button","29","113656","0.0-28.0","dietary_decision","true","0","","Unhealthy","2914","health_rating","keeblerfudgestripes","-1","26","","","","",""
"","2346","","2346","500","stim","single-stim-button","30","116504","0.0-29.0","dietary_decision","true","0","","Healthy","2346","health_rating","reddelicious","1","27","","","","",""
"","1343","","1343","500","stim","single-stim-button","31","118352","0.0-30.0","dietary_decision","true","0","","Unhealthy","1343","health_rating","uToberlorone","-1","28","","","","",""
"","3218","","3218","500","stim","single-stim-button","32","122072","0.0-31.0","dietary_decision","true","0","","Unhealthy","3218","health_rating","cranberries","-1","29","","","","",""
"","-1","","4000","500","stim","single-stim-button","33","126575","0.0-32.0","dietary_decision","true","0","","-1","4000","health_rating","uTwix","NaN","30","","","","",""
"","1805","","1805","500","stim","single-stim-button","34","128896","0.0-33.0","dietary_decision","true","0","","Healthy","1805","health_rating","whitegrapes","1","31","","","","",""
"","3467","","3467","500","stim","single-stim-button","35","132864","0.0-34.0","dietary_decision","true","0","","Healthy","3467","health_rating","ffraspsorbet","1","32","","","","",""
"","2434","","2434","500","stim","single-stim-button","36","135808","0.0-35.0","dietary_decision","true","0","","Unhealthy","2434","health_rating","slimfastC","-1","33","","","","",""
"","2132","","2132","500","stim","single-stim-button","37","138456","0.0-36.0","dietary_decision","true","0","","Unhealthy","2132","health_rating","raisins","-1","34","","","","",""
"","1617","","1617","500","stim","single-stim-button","38","140576","0.0-37.0","dietary_decision","true","0","","Unhealthy","1617","health_rating","butterfinger","-1","35","","","","",""
"","1320","","1320","500","stim","single-stim-button","39","142408","0.0-38.0","dietary_decision","true","0","","Healthy","1320","health_rating","redgrapes","1","36","","","","",""
"","-1","","4000","500","stim","single-stim-button","40","146915","0.0-39.0","dietary_decision","true","0","","-1","4000","health_rating","sbcrackers","NaN","37","","","","",""
"","1609","","1609","500","stim","single-stim-button","41","149040","0.0-40.0","dietary_decision","true","0","","Unhealthy","1609","health_rating","MrsFields","-1","38","","","","",""
"","1555","","1555","500","stim","single-stim-button","42","151111","0.0-41.0","dietary_decision","true","0","","Healthy","1555","health_rating","banana","1","39","","","","",""
"","3521","","3521","500","stim","single-stim-button","43","155144","0.0-42.0","dietary_decision","true","0","","Unhealthy","3521","health_rating","Ghiradelli","-1","40","","","","",""
"","2514","","2514","500","stim","single-stim-button","44","158160","0.0-43.0","dietary_decision","true","0","","Unhealthy","2514","health_rating","slimfastV","-1","41","","","","",""
"","-1","","4000","500","stim","single-stim-button","45","162678","0.0-44.0","dietary_decision","true","0","","-1","4000","health_rating","100Grand","NaN","42","","","","",""
"","2683","","2683","500","stim","single-stim-button","46","165872","0.0-45.0","dietary_decision","true","0","","Neutral","2683","health_rating","ruffles","0","43","","","","",""
"","1820","","1820","500","stim","single-stim-button","47","168200","0.0-46.0","dietary_decision","true","0","","Unhealthy","1820","health_rating","FamousAmos","-1","44","","","","",""
"","889","","889","500","stim","single-stim-button","48","169599","0.0-47.0","dietary_decision","true","0","","Unhealthy","889","health_rating","FlamingCheetos","-1","45","","","","",""
"","1390","","1390","500","stim","single-stim-button","49","171495","0.0-48.0","dietary_decision","true","0","","Unhealthy","1390","health_rating","orangejello","-1","46","","","","",""
"","1265","","1265","500","stim","single-stim-button","50","173272","0.0-49.0","dietary_decision","true","0","","Unhealthy","1265","health_rating","icecreamsandwich","-1","47","","","","",""
"","3275","","3275","500","stim","single-stim-button","51","177048","0.0-50.0","dietary_decision","true","0","","Neutral","3275","health_rating","wwbrownie","0","48","","","","",""
"","2099","","2099","500","stim","single-stim-button","52","179656","0.0-51.0","dietary_decision","true","0","","Unhealthy","2099","health_rating","HoHo","-1","49","","","","",""
"<div class = centerbox><p class = ""center-block-text"">In the next block of trials, rate the tastiness of each food item without regard for its healthiness. Press <strong>enter</strong> to begin.</p></div>","16831","13","16831","500","start_taste","poldrack-text","53","196992","0.0-52.0","dietary_decision","true","0","","","","","","","","","","","",""
"","1831","","1831","500","stim","single-stim-button","54","199336","0.0-53.0","dietary_decision","true","0","","Good","1831","taste_rating","orange","1","0","","","","",""
"","2350","","2350","500","stim","single-stim-button","55","202192","0.0-54.0","dietary_decision","true","0","","Good","2350","taste_rating","frozenyogart","1","1","","","","",""
"","2726","","2726","500","stim","single-stim-button","56","205423","0.0-55.0","dietary_decision","true","0","","Neutral","2726","taste_rating","slimfastV","0","2","","","","",""
"","2332","","2332","500","stim","single-stim-button","57","208272","0.0-56.0","dietary_decision","true","0","","Bad","2332","taste_rating","Oreos","-1","3","","","","",""
"","1348","","1348","500","stim","single-stim-button","58","210135","0.0-57.0","dietary_decision","true","0","","Good","1348","taste_rating","banana","1","4","","","","",""
"","1225","","1225","500","stim","single-stim-button","59","211864","0.0-58.0","dietary_decision","true","0","","Good","1225","taste_rating","cellery","1","5","","","","",""
"","3506","","3506","500","stim","single-stim-button","60","215880","0.0-59.0","dietary_decision","true","0","","Neutral","3506","taste_rating","slimfastC","0","6","","","","",""
"","1218","","1218","500","stim","single-stim-button","61","217599","0.0-60.0","dietary_decision","true","0","","Good","1218","taste_rating","reddelicious","1","7","","","","",""
"","3430","","3430","500","stim","single-stim-button","62","221543","0.0-61.0","dietary_decision","true","0","","Good","3430","taste_rating","blueberryyogart","1","8","","","","",""
"","1241","","1241","500","stim","single-stim-button","63","223295","0.0-62.0","dietary_decision","true","0","","Good","1241","taste_rating","ffraspsorbet","1","9","","","","",""
"","2457","","2457","500","stim","single-stim-button","64","226264","0.0-63.0","dietary_decision","true","0","","Neutral","2457","taste_rating","brocollincauliflower","0","10","","","","",""
"","-1","","4000","500","stim","single-stim-button","65","230774","0.0-64.0","dietary_decision","true","0","","-1","4000","taste_rating","uTwix","NaN","11","","","","",""
"","-1","","4000","500","stim","single-stim-button","66","235279","0.0-65.0","dietary_decision","true","0","","-1","4000","taste_rating","wwmuffin","NaN","12","","","","",""
"","3804","","3804","500","stim","single-stim-button","67","239584","0.0-66.0","dietary_decision","true","0","","Good","3804","taste_rating","sbcrackers","1","13","","","","",""
"","-1","","4000","500","stim","single-stim-button","68","244098","0.0-67.0","dietary_decision","true","0","","-1","4000","taste_rating","orangejello","NaN","14","","","","",""
"","746","","746","500","stim","single-stim-button","69","245351","0.0-68.0","dietary_decision","true","0","","Neutral","746","taste_rating","butterfinger","0","15","","","","",""
"","3511","","3511","500","stim","single-stim-button","70","249367","0.0-69.0","dietary_decision","true","0","","Good","3511","taste_rating","cherryicecream","1","16","","","","",""
"","2114","","2114","500","stim","single-stim-button","71","251983","0.0-70.0","dietary_decision","true","0","","Good","2114","taste_rating","grannysmith","1","17","","","","",""
"","2638","","2638","500","stim","single-stim-button","72","255128","0.0-71.0","dietary_decision","true","0","","Neutral","2638","taste_rating","raisins","0","18","","","","",""
"","2046","","2046","500","stim","single-stim-button","73","257688","0.0-72.0","dietary_decision","true","0","","Bad","2046","taste_rating","uToberlorone","-1","19","","","","",""
"","1393","","1393","500","stim","single-stim-button","74","259583","0.0-73.0","dietary_decision","true","0","","Good","1393","taste_rating","whitegrapes","1","20","","","","",""
"","2580","","2580","500","stim","single-stim-button","75","262664","0.0-74.0","dietary_decision","true","0","","Good","2580","taste_rating","cranberries","1","21","","","","",""
"","751","","751","500","stim","single-stim-button","76","263928","0.0-75.0","dietary_decision","true","0","","Good","751","taste_rating","redgrapes","1","22","","","","",""
"","3897","","3897","500","stim","single-stim-button","77","268335","0.0-76.0","dietary_decision","true","0","","Bad","3897","taste_rating","icecreamsandwich","-1","23","","","","",""
"","2597","","2597","500","stim","single-stim-button","78","271440","0.0-77.0","dietary_decision","true","0","","Good","2597","taste_rating","MrsFields","1","24","","","","",""
"","1868","","1868","500","stim","single-stim-button","79","273824","0.0-78.0","dietary_decision","true","0","","Good","1868","taste_rating","cookies","1","25","","","","",""
"","-1","","4000","500","stim","single-stim-button","80","278348","0.0-79.0","dietary_decision","true","0","","-1","4000","taste_rating","100Grand","NaN","26","","","","",""
"","1517","","1517","500","stim","single-stim-button","81","280376","0.0-80.0","dietary_decision","true","0","","Good","1517","taste_rating","Lindt","1","27","","","","",""
"","3497","","3497","500","stim","single-stim-button","82","284376","0.0-81.0","dietary_decision","true","0","","Good","3497","taste_rating","laysclassic","1","28","","","","",""
"","-1","","4000","500","stim","single-stim-button","83","288889","0.0-82.0","dietary_decision","true","0","","-1","4000","taste_rating","carrots","NaN","29","","","","",""
"","-1","","4000","500","stim","single-stim-button","84","293398","0.0-83.0","dietary_decision","true","0","","-1","4000","taste_rating","KitKat","NaN","30","","","","",""
"","1414","","1414","500","stim","single-stim-button","85","295327","0.0-84.0","dietary_decision","true","0","","Good","1414","taste_rating","keeblerfudgestripes","1","31","","","","",""
"","2824","","2824","500","stim","single-stim-button","86","298664","0.0-85.0","dietary_decision","true","0","","Bad","2824","taste_rating","FlamingCheetos","-1","32","","","","",""
"","1891","","1891","500","stim","single-stim-button","87","301055","0.0-86.0","dietary_decision","true","0","","Neutral","1891","taste_rating","FamousAmos","0","33","","","","",""
"","2121","","2121","500","stim","single-stim-button","88","303680","0.0-87.0","dietary_decision","true","0","","Good","2121","taste_rating","mixedyogart","1","34","","","","",""
"","-1","","4000","500","stim","single-stim-button","89","308190","0.0-88.0","dietary_decision","true","0","","-1","4000","taste_rating","cookiencream","NaN","35","","","","",""
"","2064","","2064","500","stim","single-stim-button","90","310759","0.0-89.0","dietary_decision","true","0","","Bad","2064","taste_rating","HoHo","-1","36","","","","",""
"","2175","","2175","500","stim","single-stim-button","91","313439","0.0-90.0","dietary_decision","true","0","","Good","2175","taste_rating","sbdietbar","1","37","","","","",""
"","749","","749","500","stim","single-stim-button","92","314703","0.0-91.0","dietary_decision","true","0","","Good","749","taste_rating","specialKbar","1","38","","","","",""
"","2898","","2898","500","stim","single-stim-button","93","318104","0.0-92.0","dietary_decision","true","0","","Bad","2898","taste_rating","Doritosranch","-1","39","","","","",""
"","1409","","1409","500","stim","single-stim-button","94","320023","0.0-93.0","dietary_decision","true","0","","Good","1409","taste_rating","RiceKrispyTreat","1","40","","","","",""
"","2940","","2940","500","stim","single-stim-button","95","323479","0.0-94.0","dietary_decision","true","0","","Bad","2940","taste_rating","ruffles","-1","41","","","","",""
"","1319","","1319","500","stim","single-stim-button","96","325311","0.0-95.0","dietary_decision","true","0","","Good","1319","taste_rating","wwbrownie","1","42","","","","",""
"","1728","","1728","500","stim","single-stim-button","97","327551","0.0-96.0","dietary_decision","true","0","","Bad","1728","taste_rating","Reeses","-1","43","","","","",""
"","1507","","1507","500","stim","single-stim-button","98","329559","0.0-97.0","dietary_decision","true","0","","Good","1507","taste_rating","keeblerrainbow","1","44","","","","",""
"","1430","","1430","500","stim","single-stim-button","99","331495","0.0-98.0","dietary_decision","true","0","","Good","1430","taste_rating","strussel","1","45","","","","",""
"","3128","","3128","500","stim","single-stim-button","100","335127","0.0-99.0","dietary_decision","true","0","","Good","3128","taste_rating","wheatcrisps","1","46","","","","",""
"","3211","","3211","500","stim","single-stim-button","101","338839","0.0-100.0","dietary_decision","true","0","","Good","3211","taste_rating","ChipsAhoy","1","47","","","","",""
"","3496","","3496","500","stim","single-stim-button","102","342847","0.0-101.0","dietary_decision","true","0","","Neutral","3496","taste_rating","Ghiradelli","0","48","","","","",""
"","1115","","1115","500","stim","single-stim-button","103","344463","0.0-102.0","dietary_decision","true","0","","Good","1115","taste_rating","strawberries","1","49","","","","",""
"","","","","","setup test","call-function","104","345004","0.0-104.0","dietary_decision","true","0","","","","","","","","","","","",""
"<div class = dd_centerbox><p class = ""block-text"">In the next block of trials you should choose whether you would rather eat the food shown on each trial OR the food shown below. You will select response from ""Strong No"", ""No"", ""Neutral"", ""Yes"" and ""Strong Yes"". ""No"" means that you would rather eat the food below, while ""Yes"" means you would rather eat the food displayed on that trial.</p><p class = block-text>Take these decisions seriously. Imagine that at the end of the experiment you had to eat the food you chose in one random decision.</p><p class = block-text>Press <strong>enter</strong> to begin.</p></div></div><div class = dd_referenceBox><img class = dd_Stim src = /static/experiments/dietary_decision/images/sbdietbar.bmp </img></div>","53510","13","53510","500","decision_text","poldrack-text","105","398515","0.0-105.0","dietary_decision","true","0","","","","","","","","","","","",""
"","4011","","4011","500","stim","single-stim-button","106","403034","0.0-106.0","dietary_decision","true","0","","Yes","4011","decision","frozenyogart","1","0","sbdietbar","{""health"":1,""taste"":1}","{""health"":-1,""taste"":1}","",""
"","3997","","3997","500","stim","single-stim-button","107","407538","0.0-107.0","dietary_decision","true","0","","Yes","3997","decision","FamousAmos","1","1","sbdietbar","{""health"":-1,""taste"":0}","{""health"":-1,""taste"":1}","",""
"","1563","","1563","500","stim","single-stim-button","108","409610","0.0-108.0","dietary_decision","true","0","","No","1563","decision","ruffles","-1","2","sbdietbar","{""health"":0,""taste"":-1}","{""health"":-1,""taste"":1}","",""
"","1513","","1513","500","stim","single-stim-button","109","411626","0.0-109.0","dietary_decision","true","0","","No","1513","decision","uToberlorone","-1","3","sbdietbar","{""health"":-1,""taste"":-1}","{""health"":-1,""taste"":1}","",""
"","2153","","2153","500","stim","single-stim-button","110","414282","0.0-110.0","dietary_decision","true","0","","No","2153","decision","orangejello","-1","4","sbdietbar","{""health"":-1,""taste"":""NaN""}","{""health"":-1,""taste"":1}","",""
"","2946","","2946","500","stim","single-stim-button","111","417738","0.0-111.0","dietary_decision","true","0","","No","2946","decision","wwbrownie","-1","5","sbdietbar","{""health"":0,""taste"":1}","{""health"":-1,""taste"":1}","",""
"","3287","","3287","500","stim","single-stim-button","112","421530","0.0-112.0","dietary_decision","true","0","","No","3287","decision","cranberries","-1","6","sbdietbar","{""health"":-1,""taste"":1}","{""health"":-1,""taste"":1}","",""
"","1703","","1703","500","stim","single-stim-button","113","423738","0.0-113.0","dietary_decision","true","0","","No","1703","decision","FlamingCheetos","-1","7","sbdietbar","{""health"":-1,""taste"":-1}","{""health"":-1,""taste"":1}","",""
"","2244","","2244","500","stim","single-stim-button","114","426490","0.0-114.0","dietary_decision","true","0","","No","2244","decision","100Grand","-1","8","sbdietbar","{""health"":""NaN"",""taste"":""NaN""}","{""health"":-1,""taste"":1}","",""
"","1497","","1497","500","stim","single-stim-button","115","428490","0.0-115.0","dietary_decision","true","0","","Yes","1497","decision","specialKbar","1","9","sbdietbar","{""health"":0,""taste"":1}","{""health"":-1,""taste"":1}","",""
"","1499","","1499","500","stim","single-stim-button","116","430490","0.0-116.0","dietary_decision","true","0","","No","1499","decision","HoHo","-1","10","sbdietbar","{""health"":-1,""taste"":-1}","{""health"":-1,""taste"":1}","",""
"","1691","","1691","500","stim","single-stim-button","117","432682","0.0-117.0","dietary_decision","true","0","","Yes","1691","decision","carrots","1","11","sbdietbar","{""health"":-1,""taste"":""NaN""}","{""health"":-1,""taste"":1}","",""
"","1111","","1111","500","stim","single-stim-button","118","434306","0.0-118.0","dietary_decision","true","0","","Yes","1111","decision","orange","1","12","sbdietbar","{""health"":1,""taste"":1}","{""health"":-1,""taste"":1}","",""
"","3290","","3290","500","stim","single-stim-button","119","438098","0.0-119.0","dietary_decision","true","0","","No","3290","decision","Ghiradelli","-1","13","sbdietbar","{""health"":-1,""taste"":0}","{""health"":-1,""taste"":1}","",""
"","-1","","4000","500","stim","single-stim-button","120","442602","0.0-120.0","dietary_decision","true","0","","-1","4000","decision","MrsFields","-3","14","sbdietbar","{""health"":-1,""taste"":1}","{""health"":-1,""taste"":1}","",""
"","2009","","2009","500","stim","single-stim-button","121","445122","0.0-121.0","dietary_decision","true","0","","No","2009","decision","ffraspsorbet","-1","15","sbdietbar","{""health"":1,""taste"":1}","{""health"":-1,""taste"":1}","",""
"","1281","","1281","500","stim","single-stim-button","122","446914","0.0-122.0","dietary_decision","true","0","","Yes","1281","decision","whitegrapes","1","16","sbdietbar","{""health"":1,""taste"":1}","{""health"":-1,""taste"":1}","",""
"","3466","","3466","500","stim","single-stim-button","123","450882","0.0-123.0","dietary_decision","true","0","","No","3466","decision","icecreamsandwich","-1","17","sbdietbar","{""health"":-1,""taste"":-1}","{""health"":-1,""taste"":1}","",""
"","1769","","1769","500","stim","single-stim-button","124","453154","0.0-124.0","dietary_decision","true","0","","No","1769","decision","sbcrackers","-1","18","sbdietbar","{""health"":""NaN"",""taste"":1}","{""health"":-1,""taste"":1}","",""
"","1524","","1524","500","stim","single-stim-button","125","455178","0.0-125.0","dietary_decision","true","0","","No","1524","decision","Lindt","-1","19","sbdietbar","{""health"":-1,""taste"":1}","{""health"":-1,""taste"":1}","",""
"","2171","","2171","500","stim","single-stim-button","126","457850","0.0-126.0","dietary_decision","true","0","","No","2171","decision","Reeses","-1","20","sbdietbar","{""health"":-1,""taste"":-1}","{""health"":-1,""taste"":1}","",""
"","1159","","1159","500","stim","single-stim-button","127","459519","0.0-127.0","dietary_decision","true","0","","Yes","1159","decision","grannysmith","1","21","sbdietbar","{""health"":1,""taste"":1}","{""health"":-1,""taste"":1}","",""
"","1556","","1556","500","stim","single-stim-button","128","461591","0.0-128.0","dietary_decision","true","0","","Yes","1556","decision","RiceKrispyTreat","1","22","sbdietbar","{""health"":0,""taste"":1}","{""health"":-1,""taste"":1}","",""
"","2547","","2547","500","stim","single-stim-button","129","464639","0.0-129.0","dietary_decision","true","0","","No","2547","decision","cherryicecream","-1","23","sbdietbar","{""health"":0,""taste"":1}","{""health"":-1,""taste"":1}","",""
"","3596","","3596","500","stim","single-stim-button","130","468743","0.0-130.0","dietary_decision","true","0","","Yes","3596","decision","butterfinger","1","24","sbdietbar","{""health"":-1,""taste"":0}","{""health"":-1,""taste"":1}","",""
"","1320","","1320","500","stim","single-stim-button","131","470575","0.0-131.0","dietary_decision","true","0","","Yes","1320","decision","strawberries","1","25","sbdietbar","{""health"":1,""taste"":1}","{""health"":-1,""taste"":1}","",""
"","2197","","2197","500","stim","single-stim-button","132","473287","0.0-132.0","dietary_decision","true","0","","No","2197","decision","cookies","-1","26","sbdietbar","{""health"":-1,""taste"":1}","{""health"":-1,""taste"":1}","",""
"","1214","","1214","500","stim","single-stim-button","133","475007","0.0-133.0","dietary_decision","true","0","","Yes","1214","decision","banana","1","27","sbdietbar","{""health"":1,""taste"":1}","{""health"":-1,""taste"":1}","",""
"","1037","","1037","500","stim","single-stim-button","134","476559","0.0-134.0","dietary_decision","true","0","","Yes","1037","decision","cellery","1","28","sbdietbar","{""health"":1,""taste"":1}","{""health"":-1,""taste"":1}","",""
"","1552","","1552","500","stim","single-stim-button","135","478623","0.0-135.0","dietary_decision","true","0","","Yes","1552","decision","brocollincauliflower","1","29","sbdietbar","{""health"":""NaN"",""taste"":0}","{""health"":-1,""taste"":1}","",""
"","1587","","1587","500","stim","single-stim-button","136","480719","0.0-136.0","dietary_decision","true","0","","No","1587","decision","keeblerfudgestripes","-1","30","sbdietbar","{""health"":-1,""taste"":1}","{""health"":-1,""taste"":1}","",""
"","1658","","1658","500","stim","single-stim-button","137","482879","0.0-137.0","dietary_decision","true","0","","No","1658","decision","uTwix","-1","31","sbdietbar","{""health"":""NaN"",""taste"":""NaN""}","{""health"":-1,""taste"":1}","",""
"","1060","","1060","500","stim","single-stim-button","138","484447","0.0-138.0","dietary_decision","true","0","","No","1060","decision","Doritosranch","-1","32","sbdietbar","{""health"":-2,""taste"":-1}","{""health"":-1,""taste"":1}","",""
"","1556","","1556","500","stim","single-stim-button","139","486511","0.0-139.0","dietary_decision","true","0","","No","1556","decision","cookiencream","-1","33","sbdietbar","{""health"":-1,""taste"":""NaN""}","{""health"":-1,""taste"":1}","",""
"","1914","","1914","500","stim","single-stim-button","140","488935","0.0-140.0","dietary_decision","true","0","","No","1914","decision","KitKat","-1","34","sbdietbar","{""health"":-1,""taste"":""NaN""}","{""health"":-1,""taste"":1}","",""
"","1327","","1327","500","stim","single-stim-button","141","490767","0.0-141.0","dietary_decision","true","0","","Yes","1327","decision","reddelicious","1","35","sbdietbar","{""health"":1,""taste"":1}","{""health"":-1,""taste"":1}","",""
"","2071","","2071","500","stim","single-stim-button","142","493343","0.0-142.0","dietary_decision","true","0","","No","2071","decision","blueberryyogart","-1","36","sbdietbar","{""health"":-1,""taste"":1}","{""health"":-1,""taste"":1}","",""
"","2760","","2760","500","stim","single-stim-button","143","496615","0.0-143.0","dietary_decision","true","0","","No","2760","decision","laysclassic","-1","37","sbdietbar","{""health"":-2,""taste"":1}","{""health"":-1,""taste"":1}","",""
"","1958","","1958","500","stim","single-stim-button","144","499079","0.0-144.0","dietary_decision","true","0","","No","1958","decision","wwmuffin","-1","38","sbdietbar","{""health"":""NaN"",""taste"":""NaN""}","{""health"":-1,""taste"":1}","",""
"","3059","","3059","500","stim","single-stim-button","145","502639","0.0-145.0","dietary_decision","true","0","","No","3059","decision","strussel","-1","39","sbdietbar","{""health"":-1,""taste"":1}","{""health"":-1,""taste"":1}","",""
"","2403","","2403","500","stim","single-stim-button","146","505543","0.0-146.0","dietary_decision","true","0","","No","2403","decision","mixedyogart","-1","40","sbdietbar","{""health"":1,""taste"":1}","{""health"":-1,""taste"":1}","",""
"","-1","","4000","500","stim","single-stim-button","147","510059","0.0-147.0","dietary_decision","true","0","","-1","4000","decision","slimfastC","-3","41","sbdietbar","{""health"":-1,""taste"":0}","{""health"":-1,""taste"":1}","",""
"","1838","","1838","500","stim","single-stim-button","148","512407","0.0-148.0","dietary_decision","true","0","","No","1838","decision","keeblerrainbow","-1","42","sbdietbar","{""health"":-2,""taste"":1}","{""health"":-1,""taste"":1}","",""
"","2054","","2054","500","stim","single-stim-button","149","514967","0.0-149.0","dietary_decision","true","0","","No","2054","decision","raisins","-1","43","sbdietbar","{""health"":-1,""taste"":0}","{""health"":-1,""taste"":1}","",""
"","1116","","1116","500","stim","single-stim-button","150","516591","0.0-150.0","dietary_decision","true","0","","Yes","1116","decision","redgrapes","1","44","sbdietbar","{""health"":1,""taste"":1}","{""health"":-1,""taste"":1}","",""
"","2758","","2758","500","stim","single-stim-button","151","519863","0.0-151.0","dietary_decision","true","0","","No","2758","decision","slimfastV","-1","45","sbdietbar","{""health"":-1,""taste"":0}","{""health"":-1,""taste"":1}","",""
"","1347","","1347","500","stim","single-stim-button","152","521711","0.0-152.0","dietary_decision","true","0","","No","1347","decision","Oreos","-1","46","sbdietbar","{""health"":-1,""taste"":-1}","{""health"":-1,""taste"":1}","",""
"","3019","","3019","500","stim","single-stim-button","153","525232","0.0-153.0","dietary_decision","true","0","","No","3019","decision","ChipsAhoy","-1","47","sbdietbar","{""health"":-1,""taste"":1}","{""health"":-1,""taste"":1}","",""
"","3132","","3132","500","stim","single-stim-button","154","528879","0.0-154.0","dietary_decision","true","0","","Yes","3132","decision","wheatcrisps","1","48","sbdietbar","{""health"":-2,""taste"":1}","{""health"":-1,""taste"":1}","",""
"","4085","","","","post task questions","survey-text","155","533473","0.0-155.0","dietary_decision","true","0","","","","","","","","","","","{""Q0"":"""",""Q1"":""""}",""
"<div class = centerbox><p class = ""center-block-text"">Thanks for completing this task!</p><p class = ""center-block-text"">Press <strong>enter</strong> to continue.</p></div>","5095","13","5095","0","end","poldrack-text","156","539575","0.0-156.0","dietary_decision","true","0","","","","","","","","","","","","true"
