text,rt,key_press,block_duration,timing_post_trial,trial_id,trial_type,trial_index,time_elapsed,internal_node_id,exp_id,full_screen,focus_shifts,view_history,mouse_click,stim_duration,exp_stage,stim,coded_response,trial_num,reference,stim_rating,reference_rating,responses,credit_var
"<div class = centerbox><p class = ""center-block-text"">Welcome to the experiment. This task will take around 15 minutes. Press <strong>enter</strong> to begin.</p></div>",1666.0,13.0,1666.0,0.0,instruction,poldrack-text,0,1668,0.0-0.0-0.0,dietary_decision,True,0,,,,,,,,,,,,
,6959.0,,,,instruction,poldrack-instructions,1,8627,0.0-0.0-1.0,dietary_decision,True,0,"[{""page_index"":0,""viewing_time"":6959}]",,,,,,,,,,,
"<div class = centerbox><p class = ""center-block-text"">In the next block of trials, rate the healthiness of each food item without regard for its taste. Press <strong>enter</strong> to begin.</p></div>",5791.0,13.0,5791.0,500.0,start_health,poldrack-text,2,15424,0.0-1.0,dietary_decision,True,0,,,,,,,,,,,,
,3696.0,,3696.0,500.0,stim,single-stim-button,3,19628,0.0-2.0,dietary_decision,True,0,,Healthy,3696.0,health_rating,carrots,1.0,0.0,,,,,
,1978.0,,1978.0,500.0,stim,single-stim-button,4,22106,0.0-3.0,dietary_decision,True,0,,Healthy,1978.0,health_rating,cranberries,1.0,1.0,,,,,
,3298.0,,3298.0,500.0,stim,single-stim-button,5,25905,0.0-4.0,dietary_decision,True,0,,Unhealthy,3298.0,health_rating,KitKat,-1.0,2.0,,,,,
,1631.0,,1631.0,500.0,stim,single-stim-button,6,28043,0.0-5.0,dietary_decision,True,0,,Unhealthy,1631.0,health_rating,cookiencream,-1.0,3.0,,,,,
,1770.0,,1770.0,500.0,stim,single-stim-button,7,30328,0.0-6.0,dietary_decision,True,0,,Unhealthy,1770.0,health_rating,cookies,-1.0,4.0,,,,,
,3342.0,,3342.0,500.0,stim,single-stim-button,8,34185,0.0-7.0,dietary_decision,True,0,,Unhealthy,3342.0,health_rating,cherryicecream,-1.0,5.0,,,,,
,3248.0,,3248.0,500.0,stim,single-stim-button,9,37936,0.0-8.0,dietary_decision,True,0,,Very_Unhealthy,3248.0,health_rating,keeblerfudgestripes,-2.0,6.0,,,,,
,1922.0,,1922.0,500.0,stim,single-stim-button,10,40362,0.0-9.0,dietary_decision,True,0,,Healthy,1922.0,health_rating,banana,1.0,7.0,,,,,
,2815.0,,2815.0,500.0,stim,single-stim-button,11,43683,0.0-10.0,dietary_decision,True,0,,Unhealthy,2815.0,health_rating,ffraspsorbet,-1.0,8.0,,,,,
,3805.0,,3805.0,500.0,stim,single-stim-button,12,47988,0.0-11.0,dietary_decision,True,0,,Healthy,3805.0,health_rating,cellery,1.0,9.0,,,,,
,3077.0,,3077.0,500.0,stim,single-stim-button,13,51567,0.0-12.0,dietary_decision,True,0,,Unhealthy,3077.0,health_rating,RiceKrispyTreat,-1.0,10.0,,,,,
,3138.0,,3138.0,500.0,stim,single-stim-button,14,55210,0.0-13.0,dietary_decision,True,0,,Unhealthy,3138.0,health_rating,Ghiradelli,-1.0,11.0,,,,,
,-1.0,,4000.0,500.0,stim,single-stim-button,15,59714,0.0-14.0,dietary_decision,True,0,,-1,4000.0,health_rating,wheatcrisps,,12.0,,,,,
,2572.0,,2572.0,500.0,stim,single-stim-button,16,62800,0.0-15.0,dietary_decision,True,0,,Unhealthy,2572.0,health_rating,Reeses,-1.0,13.0,,,,,
,2469.0,,2469.0,500.0,stim,single-stim-button,17,65785,0.0-16.0,dietary_decision,True,0,,Very_Unhealthy,2469.0,health_rating,laysclassic,-2.0,14.0,,,,,
,1526.0,,1526.0,500.0,stim,single-stim-button,18,67815,0.0-17.0,dietary_decision,True,0,,Healthy,1526.0,health_rating,reddelicious,1.0,15.0,,,,,
,1875.0,,1875.0,500.0,stim,single-stim-button,19,70206,0.0-18.0,dietary_decision,True,0,,Unhealthy,1875.0,health_rating,keeblerrainbow,-1.0,16.0,,,,,
,3095.0,,3095.0,500.0,stim,single-stim-button,20,73807,0.0-19.0,dietary_decision,True,0,,Unhealthy,3095.0,health_rating,orangejello,-1.0,17.0,,,,,
,2821.0,,2821.0,500.0,stim,single-stim-button,21,77135,0.0-20.0,dietary_decision,True,0,,Unhealthy,2821.0,health_rating,slimfastC,-1.0,18.0,,,,,
,1271.0,,1271.0,500.0,stim,single-stim-button,22,78911,0.0-21.0,dietary_decision,True,0,,Healthy,1271.0,health_rating,orange,1.0,19.0,,,,,
,1923.0,,1923.0,500.0,stim,single-stim-button,23,81351,0.0-22.0,dietary_decision,True,0,,Neutral,1923.0,health_rating,Oreos,0.0,20.0,,,,,
,1782.0,,1782.0,500.0,stim,single-stim-button,24,83639,0.0-23.0,dietary_decision,True,0,,Very_Unhealthy,1782.0,health_rating,FlamingCheetos,-2.0,21.0,,,,,
,1854.0,,1854.0,500.0,stim,single-stim-button,25,86004,0.0-24.0,dietary_decision,True,0,,Unhealthy,1854.0,health_rating,100Grand,-1.0,22.0,,,,,
,1714.0,,1714.0,500.0,stim,single-stim-button,26,88223,0.0-25.0,dietary_decision,True,0,,Unhealthy,1714.0,health_rating,wwbrownie,-1.0,23.0,,,,,
,3471.0,,3471.0,500.0,stim,single-stim-button,27,92201,0.0-26.0,dietary_decision,True,0,,Neutral,3471.0,health_rating,brocollincauliflower,0.0,24.0,,,,,
,1857.0,,1857.0,500.0,stim,single-stim-button,28,94567,0.0-27.0,dietary_decision,True,0,,Healthy,1857.0,health_rating,whitegrapes,1.0,25.0,,,,,
,3656.0,,3656.0,500.0,stim,single-stim-button,29,98733,0.0-28.0,dietary_decision,True,0,,Healthy,3656.0,health_rating,raisins,1.0,26.0,,,,,
,3212.0,,3212.0,500.0,stim,single-stim-button,30,102452,0.0-29.0,dietary_decision,True,0,,Neutral,3212.0,health_rating,HoHo,0.0,27.0,,,,,
,1010.0,,1010.0,500.0,stim,single-stim-button,31,103968,0.0-30.0,dietary_decision,True,0,,Unhealthy,1010.0,health_rating,ChipsAhoy,-1.0,28.0,,,,,
,2472.0,,2472.0,500.0,stim,single-stim-button,32,106947,0.0-31.0,dietary_decision,True,0,,Unhealthy,2472.0,health_rating,strussel,-1.0,29.0,,,,,
,3422.0,,3422.0,500.0,stim,single-stim-button,33,110877,0.0-32.0,dietary_decision,True,0,,Unhealthy,3422.0,health_rating,slimfastV,-1.0,30.0,,,,,
,1692.0,,1692.0,500.0,stim,single-stim-button,34,113084,0.0-33.0,dietary_decision,True,0,,Unhealthy,1692.0,health_rating,sbcrackers,-1.0,31.0,,,,,
,1693.0,,1693.0,500.0,stim,single-stim-button,35,115284,0.0-34.0,dietary_decision,True,0,,Healthy,1693.0,health_rating,redgrapes,1.0,32.0,,,,,
,2916.0,,2916.0,500.0,stim,single-stim-button,36,118701,0.0-35.0,dietary_decision,True,0,,Unhealthy,2916.0,health_rating,uToberlorone,-1.0,33.0,,,,,
,3777.0,,3777.0,500.0,stim,single-stim-button,37,122980,0.0-36.0,dietary_decision,True,0,,Neutral,3777.0,health_rating,sbdietbar,0.0,34.0,,,,,
,3331.0,,3331.0,500.0,stim,single-stim-button,38,126827,0.0-37.0,dietary_decision,True,0,,Unhealthy,3331.0,health_rating,MrsFields,-1.0,35.0,,,,,
,1262.0,,1262.0,500.0,stim,single-stim-button,39,128596,0.0-38.0,dietary_decision,True,0,,Healthy,1262.0,health_rating,strawberries,1.0,36.0,,,,,
,2998.0,,2998.0,500.0,stim,single-stim-button,40,132095,0.0-39.0,dietary_decision,True,0,,Very_Unhealthy,2998.0,health_rating,Doritosranch,-2.0,37.0,,,,,
,2074.0,,2074.0,500.0,stim,single-stim-button,41,134671,0.0-40.0,dietary_decision,True,0,,Neutral,2074.0,health_rating,specialKbar,0.0,38.0,,,,,
,-1.0,,4000.0,500.0,stim,single-stim-button,42,139190,0.0-41.0,dietary_decision,True,0,,-1,4000.0,health_rating,Lindt,,39.0,,,,,
,-1.0,,4000.0,500.0,stim,single-stim-button,43,143706,0.0-42.0,dietary_decision,True,0,,-1,4000.0,health_rating,frozenyogart,,40.0,,,,,
,1622.0,,1622.0,500.0,stim,single-stim-button,44,145844,0.0-43.0,dietary_decision,True,0,,Healthy,1622.0,health_rating,blueberryyogart,1.0,41.0,,,,,
,1869.0,,1869.0,500.0,stim,single-stim-button,45,148214,0.0-44.0,dietary_decision,True,0,,Unhealthy,1869.0,health_rating,wwmuffin,-1.0,42.0,,,,,
,1766.0,,1766.0,500.0,stim,single-stim-button,46,150483,0.0-45.0,dietary_decision,True,0,,Very_Unhealthy,1766.0,health_rating,uTwix,-2.0,43.0,,,,,
,1219.0,,1219.0,500.0,stim,single-stim-button,47,152205,0.0-46.0,dietary_decision,True,0,,Very_Unhealthy,1219.0,health_rating,icecreamsandwich,-2.0,44.0,,,,,
,1078.0,,1078.0,500.0,stim,single-stim-button,48,153784,0.0-47.0,dietary_decision,True,0,,Very_Unhealthy,1078.0,health_rating,FamousAmos,-2.0,45.0,,,,,
,2184.0,,2184.0,500.0,stim,single-stim-button,49,156470,0.0-48.0,dietary_decision,True,0,,Very_Unhealthy,2184.0,health_rating,ruffles,-2.0,46.0,,,,,
,3368.0,,3368.0,500.0,stim,single-stim-button,50,160344,0.0-49.0,dietary_decision,True,0,,Healthy,3368.0,health_rating,grannysmith,1.0,47.0,,,,,
,2279.0,,2279.0,500.0,stim,single-stim-button,51,163127,0.0-50.0,dietary_decision,True,0,,Healthy,2279.0,health_rating,mixedyogart,1.0,48.0,,,,,
,3807.0,,3807.0,500.0,stim,single-stim-button,52,167438,0.0-51.0,dietary_decision,True,0,,Unhealthy,3807.0,health_rating,butterfinger,-1.0,49.0,,,,,
"<div class = centerbox><p class = ""center-block-text"">In the next block of trials, rate the tastiness of each food item without regard for its healthiness. Press <strong>enter</strong> to begin.</p></div>",3194.0,13.0,3194.0,500.0,start_taste,poldrack-text,53,171134,0.0-52.0,dietary_decision,True,0,,,,,,,,,,,,
,2816.0,,2816.0,500.0,stim,single-stim-button,54,174457,0.0-53.0,dietary_decision,True,0,,Neutral,2816.0,taste_rating,wwmuffin,0.0,0.0,,,,,
,-1.0,,4000.0,500.0,stim,single-stim-button,55,178968,0.0-54.0,dietary_decision,True,0,,-1,4000.0,taste_rating,slimfastC,,1.0,,,,,
,1295.0,,1295.0,500.0,stim,single-stim-button,56,180779,0.0-55.0,dietary_decision,True,0,,Good,1295.0,taste_rating,ChipsAhoy,1.0,2.0,,,,,
,1132.0,,1132.0,500.0,stim,single-stim-button,57,182426,0.0-56.0,dietary_decision,True,0,,Good,1132.0,taste_rating,cookiencream,1.0,3.0,,,,,
,1487.0,,1487.0,500.0,stim,single-stim-button,58,184427,0.0-57.0,dietary_decision,True,0,,Good,1487.0,taste_rating,laysclassic,1.0,4.0,,,,,
,2751.0,,2751.0,500.0,stim,single-stim-button,59,187694,0.0-58.0,dietary_decision,True,0,,Neutral,2751.0,taste_rating,raisins,0.0,5.0,,,,,
,1925.0,,1925.0,500.0,stim,single-stim-button,60,190134,0.0-59.0,dietary_decision,True,0,,Good,1925.0,taste_rating,mixedyogart,1.0,6.0,,,,,
,2207.0,,2207.0,500.0,stim,single-stim-button,61,192854,0.0-60.0,dietary_decision,True,0,,Good,2207.0,taste_rating,FlamingCheetos,1.0,7.0,,,,,
,3366.0,,3366.0,500.0,stim,single-stim-button,62,196722,0.0-61.0,dietary_decision,True,0,,Neutral,3366.0,taste_rating,orangejello,0.0,8.0,,,,,
,2572.0,,2572.0,500.0,stim,single-stim-button,63,199797,0.0-62.0,dietary_decision,True,0,,Good,2572.0,taste_rating,slimfastV,1.0,9.0,,,,,
,2004.0,,2004.0,500.0,stim,single-stim-button,64,202311,0.0-63.0,dietary_decision,True,0,,Very_Good,2004.0,taste_rating,Reeses,2.0,10.0,,,,,
,1493.0,,1493.0,500.0,stim,single-stim-button,65,204307,0.0-64.0,dietary_decision,True,0,,Good,1493.0,taste_rating,reddelicious,1.0,11.0,,,,,
,977.0,,977.0,500.0,stim,single-stim-button,66,205790,0.0-65.0,dietary_decision,True,0,,Good,977.0,taste_rating,blueberryyogart,1.0,12.0,,,,,
,1092.0,,1092.0,500.0,stim,single-stim-button,67,207391,0.0-66.0,dietary_decision,True,0,,Good,1092.0,taste_rating,whitegrapes,1.0,13.0,,,,,
,2247.0,,2247.0,500.0,stim,single-stim-button,68,210144,0.0-67.0,dietary_decision,True,0,,Good,2247.0,taste_rating,HoHo,1.0,14.0,,,,,
,748.0,,748.0,500.0,stim,single-stim-button,69,211407,0.0-68.0,dietary_decision,True,0,,Good,748.0,taste_rating,keeblerfudgestripes,1.0,15.0,,,,,
,1316.0,,1316.0,500.0,stim,single-stim-button,70,213232,0.0-69.0,dietary_decision,True,0,,Good,1316.0,taste_rating,strussel,1.0,16.0,,,,,
,2019.0,,2019.0,500.0,stim,single-stim-button,71,215753,0.0-70.0,dietary_decision,True,0,,Neutral,2019.0,taste_rating,Oreos,0.0,17.0,,,,,
,2026.0,,2026.0,500.0,stim,single-stim-button,72,218283,0.0-71.0,dietary_decision,True,0,,Neutral,2026.0,taste_rating,wwbrownie,0.0,18.0,,,,,
,3192.0,,3192.0,500.0,stim,single-stim-button,73,221986,0.0-72.0,dietary_decision,True,0,,Good,3192.0,taste_rating,ffraspsorbet,1.0,19.0,,,,,
,2298.0,,2298.0,500.0,stim,single-stim-button,74,224788,0.0-73.0,dietary_decision,True,0,,Neutral,2298.0,taste_rating,KitKat,0.0,20.0,,,,,
,2478.0,,2478.0,500.0,stim,single-stim-button,75,227782,0.0-74.0,dietary_decision,True,0,,Bad,2478.0,taste_rating,sbcrackers,-1.0,21.0,,,,,
,2975.0,,2975.0,500.0,stim,single-stim-button,76,231267,0.0-75.0,dietary_decision,True,0,,Neutral,2975.0,taste_rating,brocollincauliflower,0.0,22.0,,,,,
,3089.0,,3089.0,500.0,stim,single-stim-button,77,234861,0.0-76.0,dietary_decision,True,0,,Bad,3089.0,taste_rating,Doritosranch,-1.0,23.0,,,,,
,1412.0,,1412.0,500.0,stim,single-stim-button,78,236781,0.0-77.0,dietary_decision,True,0,,Bad,1412.0,taste_rating,RiceKrispyTreat,-1.0,24.0,,,,,
,2508.0,,2508.0,500.0,stim,single-stim-button,79,239795,0.0-78.0,dietary_decision,True,0,,Neutral,2508.0,taste_rating,MrsFields,0.0,25.0,,,,,
,2139.0,,2139.0,500.0,stim,single-stim-button,80,242440,0.0-79.0,dietary_decision,True,0,,Bad,2139.0,taste_rating,Ghiradelli,-1.0,26.0,,,,,
,2693.0,,2693.0,500.0,stim,single-stim-button,81,245644,0.0-80.0,dietary_decision,True,0,,Very_Good,2693.0,taste_rating,Lindt,2.0,27.0,,,,,
,1434.0,,1434.0,500.0,stim,single-stim-button,82,247580,0.0-81.0,dietary_decision,True,0,,Good,1434.0,taste_rating,orange,1.0,28.0,,,,,
,1264.0,,1264.0,500.0,stim,single-stim-button,83,249348,0.0-82.0,dietary_decision,True,0,,Good,1264.0,taste_rating,frozenyogart,1.0,29.0,,,,,
,2443.0,,2443.0,500.0,stim,single-stim-button,84,252300,0.0-83.0,dietary_decision,True,0,,Neutral,2443.0,taste_rating,uTwix,0.0,30.0,,,,,
,1509.0,,1509.0,500.0,stim,single-stim-button,85,254316,0.0-84.0,dietary_decision,True,0,,Bad,1509.0,taste_rating,wheatcrisps,-1.0,31.0,,,,,
,1279.0,,1279.0,500.0,stim,single-stim-button,86,256100,0.0-85.0,dietary_decision,True,0,,Bad,1279.0,taste_rating,butterfinger,-1.0,32.0,,,,,
,1390.0,,1390.0,500.0,stim,single-stim-button,87,257998,0.0-86.0,dietary_decision,True,0,,Bad,1390.0,taste_rating,specialKbar,-1.0,33.0,,,,,
,1251.0,,1251.0,500.0,stim,single-stim-button,88,259761,0.0-87.0,dietary_decision,True,0,,Bad,1251.0,taste_rating,cherryicecream,-1.0,34.0,,,,,
,2491.0,,2491.0,500.0,stim,single-stim-button,89,262754,0.0-88.0,dietary_decision,True,0,,Neutral,2491.0,taste_rating,grannysmith,0.0,35.0,,,,,
,1357.0,,1357.0,500.0,stim,single-stim-button,90,264614,0.0-89.0,dietary_decision,True,0,,Good,1357.0,taste_rating,100Grand,1.0,36.0,,,,,
,1341.0,,1341.0,500.0,stim,single-stim-button,91,266465,0.0-90.0,dietary_decision,True,0,,Good,1341.0,taste_rating,uToberlorone,1.0,37.0,,,,,
,2138.0,,2138.0,500.0,stim,single-stim-button,92,269117,0.0-91.0,dietary_decision,True,0,,Neutral,2138.0,taste_rating,cellery,0.0,38.0,,,,,
,1836.0,,1836.0,500.0,stim,single-stim-button,93,271460,0.0-92.0,dietary_decision,True,0,,Very_Good,1836.0,taste_rating,carrots,2.0,39.0,,,,,
,1022.0,,1022.0,500.0,stim,single-stim-button,94,272983,0.0-93.0,dietary_decision,True,0,,Very_Good,1022.0,taste_rating,strawberries,2.0,40.0,,,,,
,814.0,,814.0,500.0,stim,single-stim-button,95,274302,0.0-94.0,dietary_decision,True,0,,Very_Good,814.0,taste_rating,banana,2.0,41.0,,,,,
,1554.0,,1554.0,500.0,stim,single-stim-button,96,276360,0.0-95.0,dietary_decision,True,0,,Very_Bad,1554.0,taste_rating,cookies,-2.0,42.0,,,,,
,1121.0,,1121.0,500.0,stim,single-stim-button,97,277986,0.0-96.0,dietary_decision,True,0,,Bad,1121.0,taste_rating,sbdietbar,-1.0,43.0,,,,,
,-1.0,,4000.0,500.0,stim,single-stim-button,98,282497,0.0-97.0,dietary_decision,True,0,,-1,4000.0,taste_rating,cranberries,,44.0,,,,,
,2444.0,,2444.0,500.0,stim,single-stim-button,99,285449,0.0-98.0,dietary_decision,True,0,,Neutral,2444.0,taste_rating,ruffles,0.0,45.0,,,,,
,1661.0,,1661.0,500.0,stim,single-stim-button,100,287623,0.0-99.0,dietary_decision,True,0,,Good,1661.0,taste_rating,FamousAmos,1.0,46.0,,,,,
,1623.0,,1623.0,500.0,stim,single-stim-button,101,289746,0.0-100.0,dietary_decision,True,0,,Good,1623.0,taste_rating,icecreamsandwich,1.0,47.0,,,,,
,2093.0,,2093.0,500.0,stim,single-stim-button,102,292345,0.0-101.0,dietary_decision,True,0,,Bad,2093.0,taste_rating,keeblerrainbow,-1.0,48.0,,,,,
,1125.0,,1125.0,500.0,stim,single-stim-button,103,293970,0.0-102.0,dietary_decision,True,0,,Good,1125.0,taste_rating,redgrapes,1.0,49.0,,,,,
,,,,,setup test,call-function,104,294507,0.0-104.0,dietary_decision,True,0,,,,,,,,,,,,
"<div class = dd_centerbox><p class = ""block-text"">In the next block of trials you should choose whether you would rather eat the food shown on each trial OR the food shown below. You will select response from ""Strong No"", ""No"", ""Neutral"", ""Yes"" and ""Strong Yes"". ""No"" means that you would rather eat the food below, while ""Yes"" means you would rather eat the food displayed on that trial.</p><p class = block-text>Take these decisions seriously. Imagine that at the end of the experiment you had to eat the food you chose in one random decision.</p><p class = block-text>Press <strong>enter</strong> to begin.</p></div></div><div class = dd_referenceBox><img class = dd_Stim src = /static/experiments/dietary_decision/images/strussel.bmp </img></div>",20026.0,13.0,20026.0,500.0,decision_text,poldrack-text,105,314533,0.0-105.0,dietary_decision,True,0,,,,,,,,,,,,
,2299.0,,2299.0,500.0,stim,single-stim-button,106,317341,0.0-106.0,dietary_decision,True,0,,Yes,2299.0,decision,wheatcrisps,1.0,0.0,strussel,"{""health"":""NaN"",""taste"":-1}","{""health"":-1,""taste"":1}",,
,2612.0,,2612.0,500.0,stim,single-stim-button,107,320455,0.0-107.0,dietary_decision,True,0,,Yes,2612.0,decision,strawberries,1.0,1.0,strussel,"{""health"":1,""taste"":2}","{""health"":-1,""taste"":1}",,
,989.0,,989.0,500.0,stim,single-stim-button,108,321959,0.0-108.0,dietary_decision,True,0,,Yes,989.0,decision,reddelicious,1.0,2.0,strussel,"{""health"":1,""taste"":1}","{""health"":-1,""taste"":1}",,
,2019.0,,2019.0,500.0,stim,single-stim-button,109,324494,0.0-109.0,dietary_decision,True,0,,Neutral,2019.0,decision,mixedyogart,0.0,3.0,strussel,"{""health"":1,""taste"":1}","{""health"":-1,""taste"":1}",,
,1449.0,,1449.0,500.0,stim,single-stim-button,110,326449,0.0-110.0,dietary_decision,True,0,,Yes,1449.0,decision,Oreos,1.0,4.0,strussel,"{""health"":0,""taste"":0}","{""health"":-1,""taste"":1}",,
,2715.0,,2715.0,500.0,stim,single-stim-button,111,329668,0.0-111.0,dietary_decision,True,0,,Yes,2715.0,decision,orangejello,1.0,5.0,strussel,"{""health"":-1,""taste"":0}","{""health"":-1,""taste"":1}",,
,1629.0,,1629.0,500.0,stim,single-stim-button,112,331806,0.0-112.0,dietary_decision,True,0,,No,1629.0,decision,uTwix,-1.0,6.0,strussel,"{""health"":-2,""taste"":0}","{""health"":-1,""taste"":1}",,
,1354.0,,1354.0,500.0,stim,single-stim-button,113,333663,0.0-113.0,dietary_decision,True,0,,Yes,1354.0,decision,ffraspsorbet,1.0,7.0,strussel,"{""health"":-1,""taste"":1}","{""health"":-1,""taste"":1}",,
,1559.0,,1559.0,500.0,stim,single-stim-button,114,335734,0.0-114.0,dietary_decision,True,0,,Yes,1559.0,decision,keeblerrainbow,1.0,8.0,strussel,"{""health"":-1,""taste"":-1}","{""health"":-1,""taste"":1}",,
,2308.0,,2308.0,500.0,stim,single-stim-button,115,338556,0.0-115.0,dietary_decision,True,0,,No,2308.0,decision,cellery,-1.0,9.0,strussel,"{""health"":1,""taste"":0}","{""health"":-1,""taste"":1}",,
,3354.0,,3354.0,500.0,stim,single-stim-button,116,342411,0.0-116.0,dietary_decision,True,0,,Neutral,3354.0,decision,Ghiradelli,0.0,10.0,strussel,"{""health"":-1,""taste"":-1}","{""health"":-1,""taste"":1}",,
,1290.0,,1290.0,500.0,stim,single-stim-button,117,344208,0.0-117.0,dietary_decision,True,0,,Yes,1290.0,decision,laysclassic,1.0,11.0,strussel,"{""health"":-2,""taste"":1}","{""health"":-1,""taste"":1}",,
,674.0,,674.0,500.0,stim,single-stim-button,118,345390,0.0-118.0,dietary_decision,True,0,,Yes,674.0,decision,banana,1.0,12.0,strussel,"{""health"":1,""taste"":2}","{""health"":-1,""taste"":1}",,
,783.0,,783.0,500.0,stim,single-stim-button,119,346682,0.0-119.0,dietary_decision,True,0,,Yes,783.0,decision,frozenyogart,1.0,13.0,strussel,"{""health"":""NaN"",""taste"":1}","{""health"":-1,""taste"":1}",,
,812.0,,812.0,500.0,stim,single-stim-button,120,347995,0.0-120.0,dietary_decision,True,0,,Yes,812.0,decision,cookiencream,1.0,14.0,strussel,"{""health"":-1,""taste"":1}","{""health"":-1,""taste"":1}",,
,839.0,,839.0,500.0,stim,single-stim-button,121,349340,0.0-121.0,dietary_decision,True,0,,Yes,839.0,decision,cherryicecream,1.0,15.0,strussel,"{""health"":-1,""taste"":-1}","{""health"":-1,""taste"":1}",,
,2325.0,,2325.0,500.0,stim,single-stim-button,122,352174,0.0-122.0,dietary_decision,True,0,,Strong_Yes,2325.0,decision,Reeses,2.0,16.0,strussel,"{""health"":-1,""taste"":2}","{""health"":-1,""taste"":1}",,
,1153.0,,1153.0,500.0,stim,single-stim-button,123,353828,0.0-123.0,dietary_decision,True,0,,Strong_Yes,1153.0,decision,KitKat,2.0,17.0,strussel,"{""health"":-1,""taste"":0}","{""health"":-1,""taste"":1}",,
,1061.0,,1061.0,500.0,stim,single-stim-button,124,355394,0.0-124.0,dietary_decision,True,0,,Yes,1061.0,decision,keeblerfudgestripes,1.0,18.0,strussel,"{""health"":-2,""taste"":1}","{""health"":-1,""taste"":1}",,
,1294.0,,1294.0,500.0,stim,single-stim-button,125,357190,0.0-125.0,dietary_decision,True,0,,Yes,1294.0,decision,butterfinger,1.0,19.0,strussel,"{""health"":-1,""taste"":-1}","{""health"":-1,""taste"":1}",,
,1082.0,,1082.0,500.0,stim,single-stim-button,126,358781,0.0-126.0,dietary_decision,True,0,,Strong_Yes,1082.0,decision,blueberryyogart,2.0,20.0,strussel,"{""health"":1,""taste"":1}","{""health"":-1,""taste"":1}",,
,1748.0,,1748.0,500.0,stim,single-stim-button,127,361030,0.0-127.0,dietary_decision,True,0,,Neutral,1748.0,decision,wwmuffin,0.0,21.0,strussel,"{""health"":-1,""taste"":0}","{""health"":-1,""taste"":1}",,
,1549.0,,1549.0,500.0,stim,single-stim-button,128,363087,0.0-128.0,dietary_decision,True,0,,Strong_Yes,1549.0,decision,carrots,2.0,22.0,strussel,"{""health"":1,""taste"":2}","{""health"":-1,""taste"":1}",,
,1288.0,,1288.0,500.0,stim,single-stim-button,129,364890,0.0-129.0,dietary_decision,True,0,,Yes,1288.0,decision,sbcrackers,1.0,23.0,strussel,"{""health"":-1,""taste"":-1}","{""health"":-1,""taste"":1}",,
,2346.0,,2346.0,500.0,stim,single-stim-button,130,367746,0.0-130.0,dietary_decision,True,0,,Yes,2346.0,decision,RiceKrispyTreat,1.0,24.0,strussel,"{""health"":-1,""taste"":-1}","{""health"":-1,""taste"":1}",,
,1658.0,,1658.0,500.0,stim,single-stim-button,131,369918,0.0-131.0,dietary_decision,True,0,,No,1658.0,decision,cookies,-1.0,25.0,strussel,"{""health"":-1,""taste"":-2}","{""health"":-1,""taste"":1}",,
,953.0,,953.0,500.0,stim,single-stim-button,132,371381,0.0-132.0,dietary_decision,True,0,,Yes,953.0,decision,uToberlorone,1.0,26.0,strussel,"{""health"":-1,""taste"":1}","{""health"":-1,""taste"":1}",,
,1807.0,,1807.0,500.0,stim,single-stim-button,133,373703,0.0-133.0,dietary_decision,True,0,,Yes,1807.0,decision,FamousAmos,1.0,27.0,strussel,"{""health"":-2,""taste"":1}","{""health"":-1,""taste"":1}",,
,1739.0,,1739.0,500.0,stim,single-stim-button,134,375946,0.0-134.0,dietary_decision,True,0,,Strong_Yes,1739.0,decision,redgrapes,2.0,28.0,strussel,"{""health"":1,""taste"":1}","{""health"":-1,""taste"":1}",,
,1929.0,,1929.0,500.0,stim,single-stim-button,135,378377,0.0-135.0,dietary_decision,True,0,,No,1929.0,decision,specialKbar,-1.0,29.0,strussel,"{""health"":0,""taste"":-1}","{""health"":-1,""taste"":1}",,
,1643.0,,1643.0,500.0,stim,single-stim-button,136,380523,0.0-136.0,dietary_decision,True,0,,Yes,1643.0,decision,icecreamsandwich,1.0,30.0,strussel,"{""health"":-2,""taste"":1}","{""health"":-1,""taste"":1}",,
,2248.0,,2248.0,500.0,stim,single-stim-button,137,383282,0.0-137.0,dietary_decision,True,0,,No,2248.0,decision,slimfastC,-1.0,31.0,strussel,"{""health"":-1,""taste"":""NaN""}","{""health"":-1,""taste"":1}",,
,1729.0,,1729.0,500.0,stim,single-stim-button,138,385518,0.0-138.0,dietary_decision,True,0,,Yes,1729.0,decision,FlamingCheetos,1.0,32.0,strussel,"{""health"":-2,""taste"":1}","{""health"":-1,""taste"":1}",,
,1590.0,,1590.0,500.0,stim,single-stim-button,139,387615,0.0-139.0,dietary_decision,True,0,,Strong_Yes,1590.0,decision,Lindt,2.0,33.0,strussel,"{""health"":""NaN"",""taste"":2}","{""health"":-1,""taste"":1}",,
,1295.0,,1295.0,500.0,stim,single-stim-button,140,389418,0.0-140.0,dietary_decision,True,0,,Yes,1295.0,decision,MrsFields,1.0,34.0,strussel,"{""health"":-1,""taste"":0}","{""health"":-1,""taste"":1}",,
,1235.0,,1235.0,500.0,stim,single-stim-button,141,391155,0.0-141.0,dietary_decision,True,0,,Yes,1235.0,decision,ChipsAhoy,1.0,35.0,strussel,"{""health"":-1,""taste"":1}","{""health"":-1,""taste"":1}",,
,2633.0,,2633.0,500.0,stim,single-stim-button,142,394305,0.0-142.0,dietary_decision,True,0,,Yes,2633.0,decision,100Grand,1.0,36.0,strussel,"{""health"":-1,""taste"":1}","{""health"":-1,""taste"":1}",,
,1937.0,,1937.0,500.0,stim,single-stim-button,143,396744,0.0-143.0,dietary_decision,True,0,,Neutral,1937.0,decision,grannysmith,0.0,37.0,strussel,"{""health"":1,""taste"":0}","{""health"":-1,""taste"":1}",,
,1815.0,,1815.0,500.0,stim,single-stim-button,144,399061,0.0-144.0,dietary_decision,True,0,,Strong_Yes,1815.0,decision,whitegrapes,2.0,38.0,strussel,"{""health"":1,""taste"":1}","{""health"":-1,""taste"":1}",,
,1453.0,,1453.0,500.0,stim,single-stim-button,145,401029,0.0-145.0,dietary_decision,True,0,,Strong_Yes,1453.0,decision,cranberries,2.0,39.0,strussel,"{""health"":1,""taste"":""NaN""}","{""health"":-1,""taste"":1}",,
,3335.0,,3335.0,500.0,stim,single-stim-button,146,404871,0.0-146.0,dietary_decision,True,0,,Yes,3335.0,decision,brocollincauliflower,1.0,40.0,strussel,"{""health"":0,""taste"":0}","{""health"":-1,""taste"":1}",,
,3493.0,,3493.0,500.0,stim,single-stim-button,147,408869,0.0-147.0,dietary_decision,True,0,,Neutral,3493.0,decision,sbdietbar,0.0,41.0,strussel,"{""health"":0,""taste"":-1}","{""health"":-1,""taste"":1}",,
,1385.0,,1385.0,500.0,stim,single-stim-button,148,410769,0.0-148.0,dietary_decision,True,0,,Yes,1385.0,decision,orange,1.0,42.0,strussel,"{""health"":1,""taste"":1}","{""health"":-1,""taste"":1}",,
,1167.0,,1167.0,500.0,stim,single-stim-button,149,412445,0.0-149.0,dietary_decision,True,0,,Yes,1167.0,decision,Doritosranch,1.0,43.0,strussel,"{""health"":-2,""taste"":-1}","{""health"":-1,""taste"":1}",,
,2706.0,,2706.0,500.0,stim,single-stim-button,150,415654,0.0-150.0,dietary_decision,True,0,,No,2706.0,decision,wwbrownie,-1.0,44.0,strussel,"{""health"":-1,""taste"":0}","{""health"":-1,""taste"":1}",,
,3243.0,,3243.0,500.0,stim,single-stim-button,151,419403,0.0-151.0,dietary_decision,True,0,,No,3243.0,decision,slimfastV,-1.0,45.0,strussel,"{""health"":-1,""taste"":1}","{""health"":-1,""taste"":1}",,
,3235.0,,3235.0,500.0,stim,single-stim-button,152,423152,0.0-152.0,dietary_decision,True,0,,Yes,3235.0,decision,ruffles,1.0,46.0,strussel,"{""health"":-2,""taste"":0}","{""health"":-1,""taste"":1}",,
,2446.0,,2446.0,500.0,stim,single-stim-button,153,426103,0.0-153.0,dietary_decision,True,0,,Neutral,2446.0,decision,raisins,0.0,47.0,strussel,"{""health"":1,""taste"":0}","{""health"":-1,""taste"":1}",,
,1825.0,,1825.0,500.0,stim,single-stim-button,154,428432,0.0-154.0,dietary_decision,True,0,,Yes,1825.0,decision,HoHo,1.0,48.0,strussel,"{""health"":0,""taste"":1}","{""health"":-1,""taste"":1}",,
,3011.0,,,,post task questions,survey-text,155,431951,0.0-155.0,dietary_decision,True,0,,,,,,,,,,,"{""Q0"":"""",""Q1"":""""}",
"<div class = centerbox><p class = ""center-block-text"">Thanks for completing this task!</p><p class = ""center-block-text"">Press <strong>enter</strong> to continue.</p></div>",1693.0,13.0,1693.0,0.0,end,poldrack-text,156,434647,0.0-156.0,dietary_decision,True,0,,,,,,,,,,,,True
