text,rt,key_press,block_duration,timing_post_trial,trial_id,trial_type,trial_index,time_elapsed,internal_node_id,exp_id,full_screen,focus_shifts,view_history,mouse_click,stim_duration,exp_stage,stim,coded_response,trial_num,reference,stim_rating,reference_rating,responses,credit_var
"<div class = centerbox><p class = ""center-block-text"">Welcome to the experiment. This task will take around 15 minutes. Press <strong>enter</strong> to begin.</p></div>",3030.0,13.0,3030.0,0.0,instruction,poldrack-text,0,3031,0.0-0.0-0.0,dietary_decision,True,0,,,,,,,,,,,,
,3695.0,,,,instruction,poldrack-instructions,1,6728,0.0-0.0-1.0,dietary_decision,True,0,"[{""page_index"":0,""viewing_time"":3695}]",,,,,,,,,,,
"<div class = centerbox><p class = ""center-block-text"">In the next block of trials, rate the tastiness of each food item without regard for its healthiness. Press <strong>enter</strong> to begin.</p></div>",6011.0,13.0,6011.0,500.0,start_taste,poldrack-text,2,13745,0.0-1.0,dietary_decision,True,0,,,,,,,,,,,,
,-1.0,,4000.0,500.0,stim,single-stim-button,3,18256,0.0-2.0,dietary_decision,True,0,,-1,4000.0,taste_rating,cookiencream,,0.0,,,,,
,2629.0,,2629.0,500.0,stim,single-stim-button,4,21398,0.0-3.0,dietary_decision,True,0,,Neutral,2629.0,taste_rating,strussel,0.0,1.0,,,,,
,2181.0,,2181.0,500.0,stim,single-stim-button,5,24083,0.0-4.0,dietary_decision,True,0,,Good,2181.0,taste_rating,slimfastV,1.0,2.0,,,,,
,2536.0,,2536.0,500.0,stim,single-stim-button,6,27132,0.0-5.0,dietary_decision,True,0,,Very_Good,2536.0,taste_rating,ruffles,2.0,3.0,,,,,
,1851.0,,1851.0,500.0,stim,single-stim-button,7,29500,0.0-6.0,dietary_decision,True,0,,Good,1851.0,taste_rating,keeblerrainbow,1.0,4.0,,,,,
,2127.0,,2127.0,500.0,stim,single-stim-button,8,32128,0.0-7.0,dietary_decision,True,0,,Good,2127.0,taste_rating,whitegrapes,1.0,5.0,,,,,
,2012.0,,2012.0,500.0,stim,single-stim-button,9,34649,0.0-8.0,dietary_decision,True,0,,Very_Good,2012.0,taste_rating,ffraspsorbet,2.0,6.0,,,,,
,2605.0,,2605.0,500.0,stim,single-stim-button,10,37755,0.0-9.0,dietary_decision,True,0,,Bad,2605.0,taste_rating,mixedyogart,-1.0,7.0,,,,,
,2209.0,,2209.0,500.0,stim,single-stim-button,11,40466,0.0-10.0,dietary_decision,True,0,,Very_Good,2209.0,taste_rating,orangejello,2.0,8.0,,,,,
,1788.0,,1788.0,500.0,stim,single-stim-button,12,42755,0.0-11.0,dietary_decision,True,0,,Good,1788.0,taste_rating,reddelicious,1.0,9.0,,,,,
,3130.0,,3130.0,500.0,stim,single-stim-button,13,46386,0.0-12.0,dietary_decision,True,0,,Good,3130.0,taste_rating,slimfastC,1.0,10.0,,,,,
,2496.0,,2496.0,500.0,stim,single-stim-button,14,49392,0.0-13.0,dietary_decision,True,0,,Bad,2496.0,taste_rating,RiceKrispyTreat,-1.0,11.0,,,,,
,1676.0,,1676.0,500.0,stim,single-stim-button,15,51570,0.0-14.0,dietary_decision,True,0,,Neutral,1676.0,taste_rating,FamousAmos,0.0,12.0,,,,,
,1867.0,,1867.0,500.0,stim,single-stim-button,16,53937,0.0-15.0,dietary_decision,True,0,,Good,1867.0,taste_rating,cellery,1.0,13.0,,,,,
,1507.0,,1507.0,500.0,stim,single-stim-button,17,55945,0.0-16.0,dietary_decision,True,0,,Good,1507.0,taste_rating,orange,1.0,14.0,,,,,
,1757.0,,1757.0,500.0,stim,single-stim-button,18,58202,0.0-17.0,dietary_decision,True,0,,Very_Good,1757.0,taste_rating,Oreos,2.0,15.0,,,,,
,1538.0,,1538.0,500.0,stim,single-stim-button,19,60241,0.0-18.0,dietary_decision,True,0,,Very_Good,1538.0,taste_rating,uToberlorone,2.0,16.0,,,,,
,1565.0,,1565.0,500.0,stim,single-stim-button,20,62306,0.0-19.0,dietary_decision,True,0,,Very_Good,1565.0,taste_rating,butterfinger,2.0,17.0,,,,,
,1312.0,,1312.0,500.0,stim,single-stim-button,21,64118,0.0-20.0,dietary_decision,True,0,,Very_Good,1312.0,taste_rating,KitKat,2.0,18.0,,,,,
,1175.0,,1175.0,500.0,stim,single-stim-button,22,65796,0.0-21.0,dietary_decision,True,0,,Very_Good,1175.0,taste_rating,Reeses,2.0,19.0,,,,,
,1949.0,,1949.0,500.0,stim,single-stim-button,23,68245,0.0-22.0,dietary_decision,True,0,,Good,1949.0,taste_rating,banana,1.0,20.0,,,,,
,1176.0,,1176.0,500.0,stim,single-stim-button,24,69922,0.0-23.0,dietary_decision,True,0,,Good,1176.0,taste_rating,100Grand,1.0,21.0,,,,,
,1762.0,,1762.0,500.0,stim,single-stim-button,25,72185,0.0-24.0,dietary_decision,True,0,,Good,1762.0,taste_rating,Doritosranch,1.0,22.0,,,,,
,1484.0,,1484.0,500.0,stim,single-stim-button,26,74171,0.0-25.0,dietary_decision,True,0,,Very_Good,1484.0,taste_rating,grannysmith,2.0,23.0,,,,,
,2110.0,,2110.0,500.0,stim,single-stim-button,27,76781,0.0-26.0,dietary_decision,True,0,,Good,2110.0,taste_rating,wwmuffin,1.0,24.0,,,,,
,1217.0,,1217.0,500.0,stim,single-stim-button,28,78498,0.0-27.0,dietary_decision,True,0,,Good,1217.0,taste_rating,Ghiradelli,1.0,25.0,,,,,
,1525.0,,1525.0,500.0,stim,single-stim-button,29,80524,0.0-28.0,dietary_decision,True,0,,Good,1525.0,taste_rating,blueberryyogart,1.0,26.0,,,,,
,1888.0,,1888.0,500.0,stim,single-stim-button,30,82913,0.0-29.0,dietary_decision,True,0,,Good,1888.0,taste_rating,carrots,1.0,27.0,,,,,
,1632.0,,1632.0,500.0,stim,single-stim-button,31,85046,0.0-30.0,dietary_decision,True,0,,Good,1632.0,taste_rating,keeblerfudgestripes,1.0,28.0,,,,,
,2082.0,,2082.0,500.0,stim,single-stim-button,32,87640,0.0-31.0,dietary_decision,True,0,,Good,2082.0,taste_rating,cranberries,1.0,29.0,,,,,
,2013.0,,2013.0,500.0,stim,single-stim-button,33,90154,0.0-32.0,dietary_decision,True,0,,Good,2013.0,taste_rating,cherryicecream,1.0,30.0,,,,,
,2524.0,,2524.0,500.0,stim,single-stim-button,34,93179,0.0-33.0,dietary_decision,True,0,,Good,2524.0,taste_rating,brocollincauliflower,1.0,31.0,,,,,
,1526.0,,1526.0,500.0,stim,single-stim-button,35,95206,0.0-34.0,dietary_decision,True,0,,Good,1526.0,taste_rating,Lindt,1.0,32.0,,,,,
,1560.0,,1560.0,500.0,stim,single-stim-button,36,97267,0.0-35.0,dietary_decision,True,0,,Good,1560.0,taste_rating,specialKbar,1.0,33.0,,,,,
,1634.0,,1634.0,500.0,stim,single-stim-button,37,99402,0.0-36.0,dietary_decision,True,0,,Good,1634.0,taste_rating,wwbrownie,1.0,34.0,,,,,
,2417.0,,2417.0,500.0,stim,single-stim-button,38,102320,0.0-37.0,dietary_decision,True,0,,Good,2417.0,taste_rating,laysclassic,1.0,35.0,,,,,
,1321.0,,1321.0,500.0,stim,single-stim-button,39,104142,0.0-38.0,dietary_decision,True,0,,Good,1321.0,taste_rating,raisins,1.0,36.0,,,,,
,1551.0,,1551.0,500.0,stim,single-stim-button,40,106202,0.0-39.0,dietary_decision,True,0,,Good,1551.0,taste_rating,sbcrackers,1.0,37.0,,,,,
,1114.0,,1114.0,500.0,stim,single-stim-button,41,107816,0.0-40.0,dietary_decision,True,0,,Good,1114.0,taste_rating,sbdietbar,1.0,38.0,,,,,
,1206.0,,1206.0,500.0,stim,single-stim-button,42,109524,0.0-41.0,dietary_decision,True,0,,Good,1206.0,taste_rating,FlamingCheetos,1.0,39.0,,,,,
,2175.0,,2175.0,500.0,stim,single-stim-button,43,112201,0.0-42.0,dietary_decision,True,0,,Very_Good,2175.0,taste_rating,HoHo,2.0,40.0,,,,,
,1098.0,,1098.0,500.0,stim,single-stim-button,44,113800,0.0-43.0,dietary_decision,True,0,,Good,1098.0,taste_rating,uTwix,1.0,41.0,,,,,
,636.0,,636.0,500.0,stim,single-stim-button,45,114938,0.0-44.0,dietary_decision,True,0,,Good,636.0,taste_rating,ChipsAhoy,1.0,42.0,,,,,
,988.0,,988.0,500.0,stim,single-stim-button,46,116426,0.0-45.0,dietary_decision,True,0,,Good,988.0,taste_rating,cookies,1.0,43.0,,,,,
,856.0,,856.0,500.0,stim,single-stim-button,47,117784,0.0-46.0,dietary_decision,True,0,,Good,856.0,taste_rating,strawberries,1.0,44.0,,,,,
,893.0,,893.0,500.0,stim,single-stim-button,48,119179,0.0-47.0,dietary_decision,True,0,,Good,893.0,taste_rating,wheatcrisps,1.0,45.0,,,,,
,613.0,,613.0,500.0,stim,single-stim-button,49,120292,0.0-48.0,dietary_decision,True,0,,Good,613.0,taste_rating,redgrapes,1.0,46.0,,,,,
,451.0,,451.0,500.0,stim,single-stim-button,50,121257,0.0-49.0,dietary_decision,True,0,,Good,451.0,taste_rating,icecreamsandwich,1.0,47.0,,,,,
,766.0,,766.0,500.0,stim,single-stim-button,51,122524,0.0-50.0,dietary_decision,True,0,,Good,766.0,taste_rating,MrsFields,1.0,48.0,,,,,
,921.0,,921.0,500.0,stim,single-stim-button,52,123946,0.0-51.0,dietary_decision,True,0,,Good,921.0,taste_rating,frozenyogart,1.0,49.0,,,,,
"<div class = centerbox><p class = ""center-block-text"">In the next block of trials, rate the healthiness of each food item without regard for its taste. Press <strong>enter</strong> to begin.</p></div>",7447.0,13.0,7447.0,500.0,start_health,poldrack-text,53,131895,0.0-52.0,dietary_decision,True,0,,,,,,,,,,,,
,2876.0,,2876.0,500.0,stim,single-stim-button,54,135273,0.0-53.0,dietary_decision,True,0,,Healthy,2876.0,health_rating,keeblerrainbow,1.0,0.0,,,,,
,2161.0,,2161.0,500.0,stim,single-stim-button,55,137935,0.0-54.0,dietary_decision,True,0,,Neutral,2161.0,health_rating,HoHo,0.0,1.0,,,,,
,1986.0,,1986.0,500.0,stim,single-stim-button,56,140422,0.0-55.0,dietary_decision,True,0,,Unhealthy,1986.0,health_rating,orangejello,-1.0,2.0,,,,,
,2138.0,,2138.0,500.0,stim,single-stim-button,57,143061,0.0-56.0,dietary_decision,True,0,,Neutral,2138.0,health_rating,ChipsAhoy,0.0,3.0,,,,,
,1898.0,,1898.0,500.0,stim,single-stim-button,58,145460,0.0-57.0,dietary_decision,True,0,,Unhealthy,1898.0,health_rating,ruffles,-1.0,4.0,,,,,
,2898.0,,2898.0,500.0,stim,single-stim-button,59,148859,0.0-58.0,dietary_decision,True,0,,Unhealthy,2898.0,health_rating,slimfastC,-1.0,5.0,,,,,
,1696.0,,1696.0,500.0,stim,single-stim-button,60,151056,0.0-59.0,dietary_decision,True,0,,Healthy,1696.0,health_rating,ffraspsorbet,1.0,6.0,,,,,
,2003.0,,2003.0,500.0,stim,single-stim-button,61,153560,0.0-60.0,dietary_decision,True,0,,Unhealthy,2003.0,health_rating,FlamingCheetos,-1.0,7.0,,,,,
,1506.0,,1506.0,500.0,stim,single-stim-button,62,155567,0.0-61.0,dietary_decision,True,0,,Healthy,1506.0,health_rating,cranberries,1.0,8.0,,,,,
,3219.0,,3219.0,500.0,stim,single-stim-button,63,159295,0.0-62.0,dietary_decision,True,0,,Neutral,3219.0,health_rating,icecreamsandwich,0.0,9.0,,,,,
,1754.0,,1754.0,500.0,stim,single-stim-button,64,161550,0.0-63.0,dietary_decision,True,0,,Neutral,1754.0,health_rating,Reeses,0.0,10.0,,,,,
,1303.0,,1303.0,500.0,stim,single-stim-button,65,163359,0.0-64.0,dietary_decision,True,0,,Neutral,1303.0,health_rating,RiceKrispyTreat,0.0,11.0,,,,,
,1035.0,,1035.0,500.0,stim,single-stim-button,66,164895,0.0-65.0,dietary_decision,True,0,,Neutral,1035.0,health_rating,specialKbar,0.0,12.0,,,,,
,1695.0,,1695.0,500.0,stim,single-stim-button,67,167092,0.0-66.0,dietary_decision,True,0,,Healthy,1695.0,health_rating,wwbrownie,1.0,13.0,,,,,
,1074.0,,1074.0,500.0,stim,single-stim-button,68,168666,0.0-67.0,dietary_decision,True,0,,Healthy,1074.0,health_rating,cookiencream,1.0,14.0,,,,,
,1112.0,,1112.0,500.0,stim,single-stim-button,69,170279,0.0-68.0,dietary_decision,True,0,,Healthy,1112.0,health_rating,mixedyogart,1.0,15.0,,,,,
,2164.0,,2164.0,500.0,stim,single-stim-button,70,172944,0.0-69.0,dietary_decision,True,0,,Neutral,2164.0,health_rating,100Grand,0.0,16.0,,,,,
,1381.0,,1381.0,500.0,stim,single-stim-button,71,174827,0.0-70.0,dietary_decision,True,0,,Healthy,1381.0,health_rating,butterfinger,1.0,17.0,,,,,
,1321.0,,1321.0,500.0,stim,single-stim-button,72,176649,0.0-71.0,dietary_decision,True,0,,Neutral,1321.0,health_rating,cookies,0.0,18.0,,,,,
,2219.0,,2219.0,500.0,stim,single-stim-button,73,179370,0.0-72.0,dietary_decision,True,0,,Very_Healthy,2219.0,health_rating,redgrapes,2.0,19.0,,,,,
,1892.0,,1892.0,500.0,stim,single-stim-button,74,181764,0.0-73.0,dietary_decision,True,0,,Healthy,1892.0,health_rating,cherryicecream,1.0,20.0,,,,,
,2035.0,,2035.0,500.0,stim,single-stim-button,75,184299,0.0-74.0,dietary_decision,True,0,,Neutral,2035.0,health_rating,wwmuffin,0.0,21.0,,,,,
,966.0,,966.0,500.0,stim,single-stim-button,76,185765,0.0-75.0,dietary_decision,True,0,,Neutral,966.0,health_rating,slimfastV,0.0,22.0,,,,,
,1510.0,,1510.0,500.0,stim,single-stim-button,77,187776,0.0-76.0,dietary_decision,True,0,,Very_Healthy,1510.0,health_rating,grannysmith,2.0,23.0,,,,,
,1717.0,,1717.0,500.0,stim,single-stim-button,78,189994,0.0-77.0,dietary_decision,True,0,,Healthy,1717.0,health_rating,keeblerfudgestripes,1.0,24.0,,,,,
,949.0,,949.0,500.0,stim,single-stim-button,79,191444,0.0-78.0,dietary_decision,True,0,,Very_Healthy,949.0,health_rating,Ghiradelli,2.0,25.0,,,,,
,1891.0,,1891.0,500.0,stim,single-stim-button,80,193837,0.0-79.0,dietary_decision,True,0,,Unhealthy,1891.0,health_rating,Oreos,-1.0,26.0,,,,,
,1958.0,,1958.0,500.0,stim,single-stim-button,81,196296,0.0-80.0,dietary_decision,True,0,,Healthy,1958.0,health_rating,frozenyogart,1.0,27.0,,,,,
,1502.0,,1502.0,500.0,stim,single-stim-button,82,198298,0.0-81.0,dietary_decision,True,0,,Very_Healthy,1502.0,health_rating,reddelicious,2.0,28.0,,,,,
,1652.0,,1652.0,500.0,stim,single-stim-button,83,200451,0.0-82.0,dietary_decision,True,0,,Healthy,1652.0,health_rating,raisins,1.0,29.0,,,,,
,1432.0,,1432.0,500.0,stim,single-stim-button,84,202384,0.0-83.0,dietary_decision,True,0,,Neutral,1432.0,health_rating,MrsFields,0.0,30.0,,,,,
,693.0,,693.0,500.0,stim,single-stim-button,85,203577,0.0-84.0,dietary_decision,True,0,,Neutral,693.0,health_rating,whitegrapes,0.0,31.0,,,,,
,2838.0,,2838.0,500.0,stim,single-stim-button,86,206931,0.0-85.0,dietary_decision,True,0,,Healthy,2838.0,health_rating,sbcrackers,1.0,32.0,,,,,
,1613.0,,1613.0,500.0,stim,single-stim-button,87,209044,0.0-86.0,dietary_decision,True,0,,Neutral,1613.0,health_rating,strussel,0.0,33.0,,,,,
,1635.0,,1635.0,500.0,stim,single-stim-button,88,211181,0.0-87.0,dietary_decision,True,0,,Neutral,1635.0,health_rating,FamousAmos,0.0,34.0,,,,,
,898.0,,898.0,500.0,stim,single-stim-button,89,212579,0.0-88.0,dietary_decision,True,0,,Neutral,898.0,health_rating,sbdietbar,0.0,35.0,,,,,
,976.0,,976.0,500.0,stim,single-stim-button,90,214056,0.0-89.0,dietary_decision,True,0,,Neutral,976.0,health_rating,uToberlorone,0.0,36.0,,,,,
,2128.0,,2128.0,500.0,stim,single-stim-button,91,216685,0.0-90.0,dietary_decision,True,0,,Healthy,2128.0,health_rating,cellery,1.0,37.0,,,,,
,2028.0,,2028.0,500.0,stim,single-stim-button,92,219217,0.0-91.0,dietary_decision,True,0,,Unhealthy,2028.0,health_rating,blueberryyogart,-1.0,38.0,,,,,
,1593.0,,1593.0,500.0,stim,single-stim-button,93,221312,0.0-92.0,dietary_decision,True,0,,Unhealthy,1593.0,health_rating,wheatcrisps,-1.0,39.0,,,,,
,1684.0,,1684.0,500.0,stim,single-stim-button,94,223497,0.0-93.0,dietary_decision,True,0,,Neutral,1684.0,health_rating,laysclassic,0.0,40.0,,,,,
,1590.0,,1590.0,500.0,stim,single-stim-button,95,225588,0.0-94.0,dietary_decision,True,0,,Unhealthy,1590.0,health_rating,Doritosranch,-1.0,41.0,,,,,
,1532.0,,1532.0,500.0,stim,single-stim-button,96,227622,0.0-95.0,dietary_decision,True,0,,Very_Healthy,1532.0,health_rating,banana,2.0,42.0,,,,,
,1277.0,,1277.0,500.0,stim,single-stim-button,97,229399,0.0-96.0,dietary_decision,True,0,,Very_Healthy,1277.0,health_rating,orange,2.0,43.0,,,,,
,1178.0,,1178.0,500.0,stim,single-stim-button,98,231079,0.0-97.0,dietary_decision,True,0,,Very_Healthy,1178.0,health_rating,strawberries,2.0,44.0,,,,,
,1612.0,,1612.0,500.0,stim,single-stim-button,99,233191,0.0-98.0,dietary_decision,True,0,,Unhealthy,1612.0,health_rating,KitKat,-1.0,45.0,,,,,
,2126.0,,2126.0,500.0,stim,single-stim-button,100,235818,0.0-99.0,dietary_decision,True,0,,Very_Healthy,2126.0,health_rating,brocollincauliflower,2.0,46.0,,,,,
,1234.0,,1234.0,500.0,stim,single-stim-button,101,237553,0.0-100.0,dietary_decision,True,0,,Very_Healthy,1234.0,health_rating,carrots,2.0,47.0,,,,,
,1598.0,,1598.0,500.0,stim,single-stim-button,102,239665,0.0-101.0,dietary_decision,True,0,,Unhealthy,1598.0,health_rating,uTwix,-1.0,48.0,,,,,
,1401.0,,1401.0,500.0,stim,single-stim-button,103,241566,0.0-102.0,dietary_decision,True,0,,Unhealthy,1401.0,health_rating,Lindt,-1.0,49.0,,,,,
,,,,,setup test,call-function,104,242075,0.0-103.0,dietary_decision,True,0,,,,,,,,,,,,
"<div class = dd_centerbox><p class = ""block-text"">In the next block of trials you should choose whether you would rather eat the food shown on each trial OR the food shown below. You will select response from ""Strong No"", ""No"", ""Neutral"", ""Yes"" and ""Strong Yes"". ""No"" means that you would rather eat the food below, while ""Yes"" means you would rather eat the food displayed on that trial.</p><p class = block-text>Take these decisions seriously. Imagine that at the end of the experiment you had to eat the food you chose in one random decision.</p><p class = block-text>Press <strong>enter</strong> to begin.</p></div></div><div class = dd_referenceBox><img class = dd_Stim src = /static/experiments/dietary_decision/images/100Grand.bmp </img></div>",27996.0,13.0,27996.0,500.0,decision_text,poldrack-text,105,270072,0.0-104.0,dietary_decision,True,0,,,,,,,,,,,,
,3740.0,,3740.0,500.0,stim,single-stim-button,106,274313,0.0-105.0,dietary_decision,True,0,,No,3740.0,decision,wheatcrisps,-1.0,0.0,100Grand,"{""taste"":1,""health"":-1}","{""taste"":1,""health"":0}",,
,1388.0,,1388.0,500.0,stim,single-stim-button,107,276202,0.0-106.0,dietary_decision,True,0,,No,1388.0,decision,keeblerrainbow,-1.0,1.0,100Grand,"{""taste"":1,""health"":1}","{""taste"":1,""health"":0}",,
,1703.0,,1703.0,500.0,stim,single-stim-button,108,278407,0.0-107.0,dietary_decision,True,0,,Yes,1703.0,decision,carrots,1.0,2.0,100Grand,"{""taste"":1,""health"":2}","{""taste"":1,""health"":0}",,
,876.0,,876.0,500.0,stim,single-stim-button,109,279784,0.0-108.0,dietary_decision,True,0,,Yes,876.0,decision,strawberries,1.0,3.0,100Grand,"{""taste"":1,""health"":2}","{""taste"":1,""health"":0}",,
,577.0,,577.0,500.0,stim,single-stim-button,110,280873,0.0-109.0,dietary_decision,True,0,,Yes,577.0,decision,reddelicious,1.0,4.0,100Grand,"{""taste"":1,""health"":2}","{""taste"":1,""health"":0}",,
,622.0,,622.0,500.0,stim,single-stim-button,111,281997,0.0-110.0,dietary_decision,True,0,,Yes,622.0,decision,grannysmith,1.0,5.0,100Grand,"{""taste"":2,""health"":2}","{""taste"":1,""health"":0}",,
,426.0,,426.0,500.0,stim,single-stim-button,112,282924,0.0-111.0,dietary_decision,True,0,,Yes,426.0,decision,orangejello,1.0,6.0,100Grand,"{""taste"":2,""health"":-1}","{""taste"":1,""health"":0}",,
,554.0,,554.0,500.0,stim,single-stim-button,113,283978,0.0-112.0,dietary_decision,True,0,,Yes,554.0,decision,raisins,1.0,7.0,100Grand,"{""taste"":1,""health"":1}","{""taste"":1,""health"":0}",,
,658.0,,658.0,500.0,stim,single-stim-button,114,285137,0.0-113.0,dietary_decision,True,0,,Yes,658.0,decision,laysclassic,1.0,8.0,100Grand,"{""taste"":1,""health"":0}","{""taste"":1,""health"":0}",,
,2006.0,,2006.0,500.0,stim,single-stim-button,115,287644,0.0-114.0,dietary_decision,True,0,,Neutral,2006.0,decision,ChipsAhoy,0.0,9.0,100Grand,"{""taste"":1,""health"":0}","{""taste"":1,""health"":0}",,
,1129.0,,1129.0,500.0,stim,single-stim-button,116,289274,0.0-115.0,dietary_decision,True,0,,Yes,1129.0,decision,wwbrownie,1.0,10.0,100Grand,"{""taste"":1,""health"":1}","{""taste"":1,""health"":0}",,
,1852.0,,1852.0,500.0,stim,single-stim-button,117,291627,0.0-116.0,dietary_decision,True,0,,No,1852.0,decision,frozenyogart,-1.0,11.0,100Grand,"{""taste"":1,""health"":1}","{""taste"":1,""health"":0}",,
,1360.0,,1360.0,500.0,stim,single-stim-button,118,293488,0.0-117.0,dietary_decision,True,0,,Yes,1360.0,decision,orange,1.0,12.0,100Grand,"{""taste"":1,""health"":2}","{""taste"":1,""health"":0}",,
,2050.0,,2050.0,500.0,stim,single-stim-button,119,296041,0.0-118.0,dietary_decision,True,0,,Yes,2050.0,decision,icecreamsandwich,1.0,13.0,100Grand,"{""taste"":1,""health"":0}","{""taste"":1,""health"":0}",,
,1398.0,,1398.0,500.0,stim,single-stim-button,120,297941,0.0-119.0,dietary_decision,True,0,,Yes,1398.0,decision,ffraspsorbet,1.0,14.0,100Grand,"{""taste"":2,""health"":1}","{""taste"":1,""health"":0}",,
,1521.0,,1521.0,500.0,stim,single-stim-button,121,299964,0.0-120.0,dietary_decision,True,0,,Yes,1521.0,decision,slimfastC,1.0,15.0,100Grand,"{""taste"":1,""health"":-1}","{""taste"":1,""health"":0}",,
,757.0,,757.0,500.0,stim,single-stim-button,122,301221,0.0-121.0,dietary_decision,True,0,,Yes,757.0,decision,cellery,1.0,16.0,100Grand,"{""taste"":1,""health"":1}","{""taste"":1,""health"":0}",,
,792.0,,792.0,500.0,stim,single-stim-button,123,302514,0.0-122.0,dietary_decision,True,0,,Yes,792.0,decision,Reeses,1.0,17.0,100Grand,"{""taste"":2,""health"":0}","{""taste"":1,""health"":0}",,
,2897.0,,2897.0,500.0,stim,single-stim-button,124,305913,0.0-123.0,dietary_decision,True,0,,Yes,2897.0,decision,Ghiradelli,1.0,18.0,100Grand,"{""taste"":1,""health"":2}","{""taste"":1,""health"":0}",,
,1364.0,,1364.0,500.0,stim,single-stim-button,125,307778,0.0-124.0,dietary_decision,True,0,,Neutral,1364.0,decision,RiceKrispyTreat,0.0,19.0,100Grand,"{""taste"":-1,""health"":0}","{""taste"":1,""health"":0}",,
,1265.0,,1265.0,500.0,stim,single-stim-button,126,309544,0.0-125.0,dietary_decision,True,0,,No,1265.0,decision,MrsFields,-1.0,20.0,100Grand,"{""taste"":1,""health"":0}","{""taste"":1,""health"":0}",,
,1016.0,,1016.0,500.0,stim,single-stim-button,127,311061,0.0-126.0,dietary_decision,True,0,,No,1016.0,decision,slimfastV,-1.0,21.0,100Grand,"{""taste"":1,""health"":0}","{""taste"":1,""health"":0}",,
,1479.0,,1479.0,500.0,stim,single-stim-button,128,313042,0.0-127.0,dietary_decision,True,0,,Yes,1479.0,decision,FlamingCheetos,1.0,22.0,100Grand,"{""taste"":1,""health"":-1}","{""taste"":1,""health"":0}",,
,814.0,,814.0,500.0,stim,single-stim-button,129,314356,0.0-128.0,dietary_decision,True,0,,Yes,814.0,decision,cookiencream,1.0,23.0,100Grand,"{""taste"":""NaN"",""health"":1}","{""taste"":1,""health"":0}",,
,663.0,,663.0,500.0,stim,single-stim-button,130,315521,0.0-129.0,dietary_decision,True,0,,Yes,663.0,decision,Lindt,1.0,24.0,100Grand,"{""taste"":1,""health"":-1}","{""taste"":1,""health"":0}",,
,601.0,,601.0,500.0,stim,single-stim-button,131,316624,0.0-130.0,dietary_decision,True,0,,Yes,601.0,decision,sbdietbar,1.0,25.0,100Grand,"{""taste"":1,""health"":0}","{""taste"":1,""health"":0}",,
,554.0,,554.0,500.0,stim,single-stim-button,132,317678,0.0-131.0,dietary_decision,True,0,,Yes,554.0,decision,banana,1.0,26.0,100Grand,"{""taste"":1,""health"":2}","{""taste"":1,""health"":0}",,
,446.0,,446.0,500.0,stim,single-stim-button,133,318625,0.0-132.0,dietary_decision,True,0,,Yes,446.0,decision,uTwix,1.0,27.0,100Grand,"{""taste"":1,""health"":-1}","{""taste"":1,""health"":0}",,
,405.0,,405.0,500.0,stim,single-stim-button,134,319531,0.0-133.0,dietary_decision,True,0,,Yes,405.0,decision,cherryicecream,1.0,28.0,100Grand,"{""taste"":1,""health"":1}","{""taste"":1,""health"":0}",,
,376.0,,376.0,500.0,stim,single-stim-button,135,320409,0.0-134.0,dietary_decision,True,0,,Yes,376.0,decision,keeblerfudgestripes,1.0,29.0,100Grand,"{""taste"":1,""health"":1}","{""taste"":1,""health"":0}",,
,328.0,,328.0,500.0,stim,single-stim-button,136,321238,0.0-135.0,dietary_decision,True,0,,Yes,328.0,decision,blueberryyogart,1.0,30.0,100Grand,"{""taste"":1,""health"":-1}","{""taste"":1,""health"":0}",,
,349.0,,349.0,500.0,stim,single-stim-button,137,322089,0.0-136.0,dietary_decision,True,0,,Yes,349.0,decision,specialKbar,1.0,31.0,100Grand,"{""taste"":1,""health"":0}","{""taste"":1,""health"":0}",,
,355.0,,355.0,500.0,stim,single-stim-button,138,322946,0.0-137.0,dietary_decision,True,0,,Yes,355.0,decision,HoHo,1.0,32.0,100Grand,"{""taste"":2,""health"":0}","{""taste"":1,""health"":0}",,
,299.0,,299.0,500.0,stim,single-stim-button,139,323746,0.0-138.0,dietary_decision,True,0,,Yes,299.0,decision,uToberlorone,1.0,33.0,100Grand,"{""taste"":2,""health"":0}","{""taste"":1,""health"":0}",,
,1067.0,,1067.0,500.0,stim,single-stim-button,140,325314,0.0-139.0,dietary_decision,True,0,,Strong_Yes,1067.0,decision,cranberries,2.0,34.0,100Grand,"{""taste"":1,""health"":1}","{""taste"":1,""health"":0}",,
,1500.0,,1500.0,500.0,stim,single-stim-button,141,327314,0.0-140.0,dietary_decision,True,0,,Yes,1500.0,decision,redgrapes,1.0,35.0,100Grand,"{""taste"":1,""health"":2}","{""taste"":1,""health"":0}",,
,448.0,,448.0,500.0,stim,single-stim-button,142,328263,0.0-141.0,dietary_decision,True,0,,Yes,448.0,decision,cookies,1.0,36.0,100Grand,"{""taste"":1,""health"":0}","{""taste"":1,""health"":0}",,
,277.0,,277.0,500.0,stim,single-stim-button,143,329042,0.0-142.0,dietary_decision,True,0,,Yes,277.0,decision,mixedyogart,1.0,37.0,100Grand,"{""taste"":-1,""health"":1}","{""taste"":1,""health"":0}",,
,313.0,,313.0,500.0,stim,single-stim-button,144,329857,0.0-143.0,dietary_decision,True,0,,Yes,313.0,decision,ruffles,1.0,38.0,100Grand,"{""taste"":2,""health"":-1}","{""taste"":1,""health"":0}",,
,1128.0,,1128.0,500.0,stim,single-stim-button,145,331486,0.0-144.0,dietary_decision,True,0,,No,1128.0,decision,butterfinger,-1.0,39.0,100Grand,"{""taste"":2,""health"":1}","{""taste"":1,""health"":0}",,
,866.0,,866.0,500.0,stim,single-stim-button,146,332856,0.0-145.0,dietary_decision,True,0,,Yes,866.0,decision,strussel,1.0,40.0,100Grand,"{""taste"":0,""health"":0}","{""taste"":1,""health"":0}",,
,334.0,,334.0,500.0,stim,single-stim-button,147,333692,0.0-146.0,dietary_decision,True,0,,Yes,334.0,decision,Oreos,1.0,41.0,100Grand,"{""taste"":2,""health"":-1}","{""taste"":1,""health"":0}",,
,327.0,,327.0,500.0,stim,single-stim-button,148,334520,0.0-147.0,dietary_decision,True,0,,Yes,327.0,decision,FamousAmos,1.0,42.0,100Grand,"{""taste"":0,""health"":0}","{""taste"":1,""health"":0}",,
,300.0,,300.0,500.0,stim,single-stim-button,149,335321,0.0-148.0,dietary_decision,True,0,,Yes,300.0,decision,wwmuffin,1.0,43.0,100Grand,"{""taste"":1,""health"":0}","{""taste"":1,""health"":0}",,
,875.0,,875.0,500.0,stim,single-stim-button,150,336697,0.0-149.0,dietary_decision,True,0,,No,875.0,decision,sbcrackers,-1.0,44.0,100Grand,"{""taste"":1,""health"":1}","{""taste"":1,""health"":0}",,
,1037.0,,1037.0,500.0,stim,single-stim-button,151,338236,0.0-150.0,dietary_decision,True,0,,Strong_Yes,1037.0,decision,brocollincauliflower,2.0,45.0,100Grand,"{""taste"":1,""health"":2}","{""taste"":1,""health"":0}",,
,2245.0,,2245.0,500.0,stim,single-stim-button,152,340982,0.0-151.0,dietary_decision,True,0,,Yes,2245.0,decision,KitKat,1.0,46.0,100Grand,"{""taste"":2,""health"":-1}","{""taste"":1,""health"":0}",,
,1194.0,,1194.0,500.0,stim,single-stim-button,153,342678,0.0-152.0,dietary_decision,True,0,,Yes,1194.0,decision,whitegrapes,1.0,47.0,100Grand,"{""taste"":1,""health"":0}","{""taste"":1,""health"":0}",,
,788.0,,788.0,500.0,stim,single-stim-button,154,343967,0.0-153.0,dietary_decision,True,0,,Yes,788.0,decision,Doritosranch,1.0,48.0,100Grand,"{""taste"":1,""health"":-1}","{""taste"":1,""health"":0}",,
,30936.0,,,,post task questions,survey-text,155,375406,0.0-154.0,dietary_decision,True,0,,,,,,,,,,,"{""Q0"":""I was asked, if I would like to eat this food or not."",""Q1"":""""}",
"<div class = centerbox><p class = ""center-block-text"">Thanks for completing this task!</p><p class = ""center-block-text"">Press <strong>enter</strong> to continue.</p></div>",2736.0,13.0,2736.0,0.0,end,poldrack-text,156,379144,0.0-155.0,dietary_decision,True,0,,,,,,,,,,,,True
