text,rt,key_press,block_duration,timing_post_trial,trial_id,trial_type,trial_index,time_elapsed,internal_node_id,exp_id,full_screen,focus_shifts,view_history,mouse_click,stim_duration,exp_stage,stim,coded_response,trial_num,reference,stim_rating,reference_rating,responses,credit_var
"<div class = centerbox><p class = ""center-block-text"">Welcome to the experiment. This task will take around 15 minutes. Press <strong>enter</strong> to begin.</p></div>",3491.0,13.0,3491.0,0.0,instruction,poldrack-text,0,3493,0.0-0.0-0.0,dietary_decision,True,0,,,,,,,,,,,,
,8266.0,,,,instruction,poldrack-instructions,1,11760,0.0-0.0-1.0,dietary_decision,True,0,"[{""page_index"":0,""viewing_time"":8266}]",,,,,,,,,,,
"<div class = centerbox><p class = ""center-block-text"">In the next block of trials, rate the healthiness of each food item without regard for its taste. Press <strong>enter</strong> to begin.</p></div>",3186.0,13.0,3186.0,500.0,start_health,poldrack-text,2,15961,0.0-1.0,dietary_decision,True,0,,,,,,,,,,,,
,3391.0,,3391.0,500.0,stim,single-stim-button,3,19860,0.0-2.0,dietary_decision,True,0,,Healthy,3391.0,health_rating,banana,1.0,0.0,,,,,
,1643.0,,1643.0,500.0,stim,single-stim-button,4,22018,0.0-3.0,dietary_decision,True,0,,Very_Unhealthy,1643.0,health_rating,butterfinger,-2.0,1.0,,,,,
,972.0,,972.0,500.0,stim,single-stim-button,5,23507,0.0-4.0,dietary_decision,True,0,,Very_Unhealthy,972.0,health_rating,Ghiradelli,-2.0,2.0,,,,,
,711.0,,711.0,500.0,stim,single-stim-button,6,24731,0.0-5.0,dietary_decision,True,0,,Very_Unhealthy,711.0,health_rating,MrsFields,-2.0,3.0,,,,,
,839.0,,839.0,500.0,stim,single-stim-button,7,26082,0.0-6.0,dietary_decision,True,0,,Very_Unhealthy,839.0,health_rating,100Grand,-2.0,4.0,,,,,
,1346.0,,1346.0,500.0,stim,single-stim-button,8,27936,0.0-7.0,dietary_decision,True,0,,Unhealthy,1346.0,health_rating,wheatcrisps,-1.0,5.0,,,,,
,1622.0,,1622.0,500.0,stim,single-stim-button,9,30075,0.0-8.0,dietary_decision,True,0,,Unhealthy,1622.0,health_rating,FamousAmos,-1.0,6.0,,,,,
,1794.0,,1794.0,500.0,stim,single-stim-button,10,32380,0.0-9.0,dietary_decision,True,0,,Very_Healthy,1794.0,health_rating,redgrapes,2.0,7.0,,,,,
,2634.0,,2634.0,500.0,stim,single-stim-button,11,35526,0.0-10.0,dietary_decision,True,0,,Neutral,2634.0,health_rating,RiceKrispyTreat,0.0,8.0,,,,,
,1277.0,,1277.0,500.0,stim,single-stim-button,12,37316,0.0-11.0,dietary_decision,True,0,,Healthy,1277.0,health_rating,blueberryyogart,1.0,9.0,,,,,
,1481.0,,1481.0,500.0,stim,single-stim-button,13,39306,0.0-12.0,dietary_decision,True,0,,Healthy,1481.0,health_rating,ffraspsorbet,1.0,10.0,,,,,
,1401.0,,1401.0,500.0,stim,single-stim-button,14,41214,0.0-13.0,dietary_decision,True,0,,Healthy,1401.0,health_rating,carrots,1.0,11.0,,,,,
,1599.0,,1599.0,500.0,stim,single-stim-button,15,43316,0.0-14.0,dietary_decision,True,0,,Unhealthy,1599.0,health_rating,uToberlorone,-1.0,12.0,,,,,
,2503.0,,2503.0,500.0,stim,single-stim-button,16,46322,0.0-15.0,dietary_decision,True,0,,Healthy,2503.0,health_rating,mixedyogart,1.0,13.0,,,,,
,1999.0,,1999.0,500.0,stim,single-stim-button,17,48835,0.0-16.0,dietary_decision,True,0,,Neutral,1999.0,health_rating,icecreamsandwich,0.0,14.0,,,,,
,1340.0,,1340.0,500.0,stim,single-stim-button,18,50680,0.0-17.0,dietary_decision,True,0,,Healthy,1340.0,health_rating,brocollincauliflower,1.0,15.0,,,,,
,823.0,,823.0,500.0,stim,single-stim-button,19,52013,0.0-18.0,dietary_decision,True,0,,Healthy,823.0,health_rating,frozenyogart,1.0,16.0,,,,,
,784.0,,784.0,500.0,stim,single-stim-button,20,53298,0.0-19.0,dietary_decision,True,0,,Healthy,784.0,health_rating,cookiencream,1.0,17.0,,,,,
,982.0,,982.0,500.0,stim,single-stim-button,21,54786,0.0-20.0,dietary_decision,True,0,,Healthy,982.0,health_rating,orangejello,1.0,18.0,,,,,
,652.0,,652.0,500.0,stim,single-stim-button,22,55952,0.0-21.0,dietary_decision,True,0,,Neutral,652.0,health_rating,strussel,0.0,19.0,,,,,
,560.0,,560.0,500.0,stim,single-stim-button,23,57026,0.0-22.0,dietary_decision,True,0,,Healthy,560.0,health_rating,Reeses,1.0,20.0,,,,,
,2292.0,,2292.0,500.0,stim,single-stim-button,24,59822,0.0-23.0,dietary_decision,True,0,,Unhealthy,2292.0,health_rating,Lindt,-1.0,21.0,,,,,
,746.0,,746.0,500.0,stim,single-stim-button,25,61077,0.0-24.0,dietary_decision,True,0,,Unhealthy,746.0,health_rating,wwbrownie,-1.0,22.0,,,,,
,575.0,,575.0,500.0,stim,single-stim-button,26,62163,0.0-25.0,dietary_decision,True,0,,Neutral,575.0,health_rating,Oreos,0.0,23.0,,,,,
,500.0,,500.0,500.0,stim,single-stim-button,27,63175,0.0-26.0,dietary_decision,True,0,,Healthy,500.0,health_rating,keeblerfudgestripes,1.0,24.0,,,,,
,427.0,,427.0,500.0,stim,single-stim-button,28,64112,0.0-27.0,dietary_decision,True,0,,Healthy,427.0,health_rating,wwmuffin,1.0,25.0,,,,,
,418.0,,418.0,500.0,stim,single-stim-button,29,65048,0.0-28.0,dietary_decision,True,0,,Unhealthy,418.0,health_rating,grannysmith,-1.0,26.0,,,,,
,469.0,,469.0,500.0,stim,single-stim-button,30,66033,0.0-29.0,dietary_decision,True,0,,Healthy,469.0,health_rating,orange,1.0,27.0,,,,,
,376.0,,376.0,500.0,stim,single-stim-button,31,66914,0.0-30.0,dietary_decision,True,0,,Healthy,376.0,health_rating,cookies,1.0,28.0,,,,,
,317.0,,317.0,500.0,stim,single-stim-button,32,67734,0.0-31.0,dietary_decision,True,0,,Neutral,317.0,health_rating,slimfastV,0.0,29.0,,,,,
,505.0,,505.0,500.0,stim,single-stim-button,33,68751,0.0-32.0,dietary_decision,True,0,,Healthy,505.0,health_rating,ruffles,1.0,30.0,,,,,
,1672.0,,1672.0,500.0,stim,single-stim-button,34,70932,0.0-33.0,dietary_decision,True,0,,Healthy,1672.0,health_rating,cranberries,1.0,31.0,,,,,
,682.0,,682.0,500.0,stim,single-stim-button,35,72116,0.0-34.0,dietary_decision,True,0,,Healthy,682.0,health_rating,HoHo,1.0,32.0,,,,,
,549.0,,549.0,500.0,stim,single-stim-button,36,73168,0.0-35.0,dietary_decision,True,0,,Healthy,549.0,health_rating,strawberries,1.0,33.0,,,,,
,2048.0,,2048.0,500.0,stim,single-stim-button,37,75720,0.0-36.0,dietary_decision,True,0,,Unhealthy,2048.0,health_rating,KitKat,-1.0,34.0,,,,,
,1659.0,,1659.0,500.0,stim,single-stim-button,38,77881,0.0-37.0,dietary_decision,True,0,,Unhealthy,1659.0,health_rating,laysclassic,-1.0,35.0,,,,,
,1812.0,,1812.0,500.0,stim,single-stim-button,39,80207,0.0-38.0,dietary_decision,True,0,,Healthy,1812.0,health_rating,cellery,1.0,36.0,,,,,
,2477.0,,2477.0,500.0,stim,single-stim-button,40,83199,0.0-39.0,dietary_decision,True,0,,Unhealthy,2477.0,health_rating,Doritosranch,-1.0,37.0,,,,,
,1901.0,,1901.0,500.0,stim,single-stim-button,41,85615,0.0-40.0,dietary_decision,True,0,,Unhealthy,1901.0,health_rating,uTwix,-1.0,38.0,,,,,
,-1.0,,4000.0,500.0,stim,single-stim-button,42,90125,0.0-41.0,dietary_decision,True,0,,-1,4000.0,health_rating,keeblerrainbow,,39.0,,,,,
,-1.0,,4000.0,500.0,stim,single-stim-button,43,94636,0.0-42.0,dietary_decision,True,0,,-1,4000.0,health_rating,sbdietbar,,40.0,,,,,
,2665.0,,2665.0,500.0,stim,single-stim-button,44,97802,0.0-43.0,dietary_decision,True,0,,Healthy,2665.0,health_rating,reddelicious,1.0,41.0,,,,,
,2086.0,,2086.0,500.0,stim,single-stim-button,45,100398,0.0-44.0,dietary_decision,True,0,,Healthy,2086.0,health_rating,sbcrackers,1.0,42.0,,,,,
,-1.0,,4000.0,500.0,stim,single-stim-button,46,104911,0.0-45.0,dietary_decision,True,0,,-1,4000.0,health_rating,ChipsAhoy,,43.0,,,,,
,2373.0,,2373.0,500.0,stim,single-stim-button,47,107797,0.0-46.0,dietary_decision,True,0,,Neutral,2373.0,health_rating,raisins,0.0,44.0,,,,,
,2099.0,,2099.0,500.0,stim,single-stim-button,48,110407,0.0-47.0,dietary_decision,True,0,,Unhealthy,2099.0,health_rating,FlamingCheetos,-1.0,45.0,,,,,
,3824.0,,3824.0,500.0,stim,single-stim-button,49,114744,0.0-48.0,dietary_decision,True,0,,Healthy,3824.0,health_rating,slimfastC,1.0,46.0,,,,,
,2033.0,,2033.0,500.0,stim,single-stim-button,50,117293,0.0-49.0,dietary_decision,True,0,,Healthy,2033.0,health_rating,specialKbar,1.0,47.0,,,,,
,-1.0,,4000.0,500.0,stim,single-stim-button,51,121814,0.0-50.0,dietary_decision,True,0,,-1,4000.0,health_rating,cherryicecream,,48.0,,,,,
,1624.0,,1624.0,500.0,stim,single-stim-button,52,123940,0.0-51.0,dietary_decision,True,0,,Healthy,1624.0,health_rating,whitegrapes,1.0,49.0,,,,,
"<div class = centerbox><p class = ""center-block-text"">In the next block of trials, rate the tastiness of each food item without regard for its healthiness. Press <strong>enter</strong> to begin.</p></div>",5449.0,13.0,5449.0,500.0,start_taste,poldrack-text,53,129902,0.0-52.0,dietary_decision,True,0,,,,,,,,,,,,
,-1.0,,4000.0,500.0,stim,single-stim-button,54,134413,0.0-53.0,dietary_decision,True,0,,-1,4000.0,taste_rating,cookiencream,,0.0,,,,,
,1268.0,,1268.0,500.0,stim,single-stim-button,55,136192,0.0-54.0,dietary_decision,True,0,,Bad,1268.0,taste_rating,slimfastV,-1.0,1.0,,,,,
,1143.0,,1143.0,500.0,stim,single-stim-button,56,137843,0.0-55.0,dietary_decision,True,0,,Very_Good,1143.0,taste_rating,Ghiradelli,2.0,2.0,,,,,
,402.0,,402.0,500.0,stim,single-stim-button,57,138754,0.0-56.0,dietary_decision,True,0,,Very_Good,402.0,taste_rating,FamousAmos,2.0,3.0,,,,,
,430.0,,430.0,500.0,stim,single-stim-button,58,139690,0.0-57.0,dietary_decision,True,0,,Very_Good,430.0,taste_rating,cherryicecream,2.0,4.0,,,,,
,455.0,,455.0,500.0,stim,single-stim-button,59,140662,0.0-58.0,dietary_decision,True,0,,Very_Good,455.0,taste_rating,strawberries,2.0,5.0,,,,,
,1232.0,,1232.0,500.0,stim,single-stim-button,60,142409,0.0-59.0,dietary_decision,True,0,,Very_Good,1232.0,taste_rating,orangejello,2.0,6.0,,,,,
,724.0,,724.0,500.0,stim,single-stim-button,61,143649,0.0-60.0,dietary_decision,True,0,,Very_Good,724.0,taste_rating,ffraspsorbet,2.0,7.0,,,,,
,544.0,,544.0,500.0,stim,single-stim-button,62,144707,0.0-61.0,dietary_decision,True,0,,Very_Good,544.0,taste_rating,Lindt,2.0,8.0,,,,,
,533.0,,533.0,500.0,stim,single-stim-button,63,145742,0.0-62.0,dietary_decision,True,0,,Very_Good,533.0,taste_rating,specialKbar,2.0,9.0,,,,,
,1036.0,,1036.0,500.0,stim,single-stim-button,64,147290,0.0-63.0,dietary_decision,True,0,,Good,1036.0,taste_rating,carrots,1.0,10.0,,,,,
,590.0,,590.0,500.0,stim,single-stim-button,65,148383,0.0-64.0,dietary_decision,True,0,,Very_Good,590.0,taste_rating,ruffles,2.0,11.0,,,,,
,375.0,,375.0,500.0,stim,single-stim-button,66,149271,0.0-65.0,dietary_decision,True,0,,Neutral,375.0,taste_rating,cellery,0.0,12.0,,,,,
,392.0,,392.0,500.0,stim,single-stim-button,67,150173,0.0-66.0,dietary_decision,True,0,,Very_Good,392.0,taste_rating,grannysmith,2.0,13.0,,,,,
,253.0,,253.0,500.0,stim,single-stim-button,68,150942,0.0-67.0,dietary_decision,True,0,,Very_Good,253.0,taste_rating,KitKat,2.0,14.0,,,,,
,843.0,,843.0,500.0,stim,single-stim-button,69,152297,0.0-68.0,dietary_decision,True,0,,Very_Good,843.0,taste_rating,cranberries,2.0,15.0,,,,,
,198.0,,198.0,500.0,stim,single-stim-button,70,152997,0.0-69.0,dietary_decision,True,0,,Good,198.0,taste_rating,icecreamsandwich,1.0,16.0,,,,,
,288.0,,288.0,500.0,stim,single-stim-button,71,153790,0.0-70.0,dietary_decision,True,0,,Very_Good,288.0,taste_rating,raisins,2.0,17.0,,,,,
,308.0,,308.0,500.0,stim,single-stim-button,72,154600,0.0-71.0,dietary_decision,True,0,,Good,308.0,taste_rating,blueberryyogart,1.0,18.0,,,,,
,229.0,,229.0,500.0,stim,single-stim-button,73,155336,0.0-72.0,dietary_decision,True,0,,Very_Good,229.0,taste_rating,redgrapes,2.0,19.0,,,,,
,607.0,,607.0,500.0,stim,single-stim-button,74,156447,0.0-73.0,dietary_decision,True,0,,Neutral,607.0,taste_rating,strussel,0.0,20.0,,,,,
,272.0,,272.0,500.0,stim,single-stim-button,75,157234,0.0-74.0,dietary_decision,True,0,,Good,272.0,taste_rating,wwmuffin,1.0,21.0,,,,,
,705.0,,705.0,500.0,stim,single-stim-button,76,158452,0.0-75.0,dietary_decision,True,0,,Very_Good,705.0,taste_rating,uToberlorone,2.0,22.0,,,,,
,189.0,,189.0,500.0,stim,single-stim-button,77,159144,0.0-76.0,dietary_decision,True,0,,Good,189.0,taste_rating,keeblerfudgestripes,1.0,23.0,,,,,
,216.0,,216.0,500.0,stim,single-stim-button,78,159876,0.0-77.0,dietary_decision,True,0,,Very_Good,216.0,taste_rating,HoHo,2.0,24.0,,,,,
,252.0,,252.0,500.0,stim,single-stim-button,79,160632,0.0-78.0,dietary_decision,True,0,,Good,252.0,taste_rating,laysclassic,1.0,25.0,,,,,
,254.0,,254.0,500.0,stim,single-stim-button,80,161403,0.0-79.0,dietary_decision,True,0,,Very_Good,254.0,taste_rating,sbdietbar,2.0,26.0,,,,,
,215.0,,215.0,500.0,stim,single-stim-button,81,162142,0.0-80.0,dietary_decision,True,0,,Neutral,215.0,taste_rating,orange,0.0,27.0,,,,,
,244.0,,244.0,500.0,stim,single-stim-button,82,162896,0.0-81.0,dietary_decision,True,0,,Very_Good,244.0,taste_rating,mixedyogart,2.0,28.0,,,,,
,254.0,,254.0,500.0,stim,single-stim-button,83,163657,0.0-82.0,dietary_decision,True,0,,Good,254.0,taste_rating,Oreos,1.0,29.0,,,,,
,199.0,,199.0,500.0,stim,single-stim-button,84,164365,0.0-83.0,dietary_decision,True,0,,Very_Good,199.0,taste_rating,FlamingCheetos,2.0,30.0,,,,,
,244.0,,244.0,500.0,stim,single-stim-button,85,165112,0.0-84.0,dietary_decision,True,0,,Neutral,244.0,taste_rating,RiceKrispyTreat,0.0,31.0,,,,,
,139.0,,139.0,500.0,stim,single-stim-button,86,165762,0.0-85.0,dietary_decision,True,0,,Good,139.0,taste_rating,reddelicious,1.0,32.0,,,,,
,177.0,,177.0,500.0,stim,single-stim-button,87,166455,0.0-86.0,dietary_decision,True,0,,Very_Good,177.0,taste_rating,uTwix,2.0,33.0,,,,,
,123.0,,123.0,500.0,stim,single-stim-button,88,167083,0.0-87.0,dietary_decision,True,0,,Neutral,123.0,taste_rating,sbcrackers,0.0,34.0,,,,,
,270.0,,270.0,500.0,stim,single-stim-button,89,167858,0.0-88.0,dietary_decision,True,0,,Very_Good,270.0,taste_rating,wheatcrisps,2.0,35.0,,,,,
,113.0,,113.0,500.0,stim,single-stim-button,90,168475,0.0-89.0,dietary_decision,True,0,,Neutral,113.0,taste_rating,Doritosranch,0.0,36.0,,,,,
,178.0,,178.0,500.0,stim,single-stim-button,91,169161,0.0-90.0,dietary_decision,True,0,,Good,178.0,taste_rating,MrsFields,1.0,37.0,,,,,
,189.0,,189.0,500.0,stim,single-stim-button,92,169855,0.0-91.0,dietary_decision,True,0,,Very_Good,189.0,taste_rating,wwbrownie,2.0,38.0,,,,,
,216.0,,216.0,500.0,stim,single-stim-button,93,170578,0.0-92.0,dietary_decision,True,0,,Neutral,216.0,taste_rating,brocollincauliflower,0.0,39.0,,,,,
,182.0,,182.0,500.0,stim,single-stim-button,94,171266,0.0-93.0,dietary_decision,True,0,,Good,182.0,taste_rating,slimfastC,1.0,40.0,,,,,
,108.0,,108.0,500.0,stim,single-stim-button,95,171890,0.0-94.0,dietary_decision,True,0,,Very_Good,108.0,taste_rating,whitegrapes,2.0,41.0,,,,,
,166.0,,166.0,500.0,stim,single-stim-button,96,172558,0.0-95.0,dietary_decision,True,0,,Good,166.0,taste_rating,frozenyogart,1.0,42.0,,,,,
,163.0,,163.0,500.0,stim,single-stim-button,97,173224,0.0-96.0,dietary_decision,True,0,,Very_Good,163.0,taste_rating,Reeses,2.0,43.0,,,,,
,102.0,,102.0,500.0,stim,single-stim-button,98,173829,0.0-97.0,dietary_decision,True,0,,Good,102.0,taste_rating,butterfinger,1.0,44.0,,,,,
,117.0,,117.0,500.0,stim,single-stim-button,99,174454,0.0-98.0,dietary_decision,True,0,,Very_Good,117.0,taste_rating,ChipsAhoy,2.0,45.0,,,,,
,516.0,,516.0,500.0,stim,single-stim-button,100,175474,0.0-99.0,dietary_decision,True,0,,Good,516.0,taste_rating,100Grand,1.0,46.0,,,,,
,295.0,,295.0,500.0,stim,single-stim-button,101,176272,0.0-100.0,dietary_decision,True,0,,Neutral,295.0,taste_rating,keeblerrainbow,0.0,47.0,,,,,
,69.0,,69.0,500.0,stim,single-stim-button,102,176850,0.0-101.0,dietary_decision,True,0,,Good,69.0,taste_rating,cookies,1.0,48.0,,,,,
,143.0,,143.0,500.0,stim,single-stim-button,103,177510,0.0-102.0,dietary_decision,True,0,,Very_Good,143.0,taste_rating,banana,2.0,49.0,,,,,
,,,,,setup test,call-function,104,178035,0.0-104.0,dietary_decision,True,0,,,,,,,,,,,,
"<div class = dd_centerbox><p class = ""block-text"">In the next block of trials you should choose whether you would rather eat the food shown on each trial OR the food shown below. You will select response from ""Strong No"", ""No"", ""Neutral"", ""Yes"" and ""Strong Yes"". ""No"" means that you would rather eat the food below, while ""Yes"" means you would rather eat the food displayed on that trial.</p><p class = block-text>Take these decisions seriously. Imagine that at the end of the experiment you had to eat the food you chose in one random decision.</p><p class = block-text>Press <strong>enter</strong> to begin.</p></div></div><div class = dd_referenceBox><img class = dd_Stim src = /static/experiments/dietary_decision/images/ruffles.bmp </img></div>",2335.0,13.0,2335.0,500.0,decision_text,poldrack-text,105,180372,0.0-105.0,dietary_decision,True,0,,,,,,,,,,,,
,1968.0,,1968.0,500.0,stim,single-stim-button,106,182853,0.0-106.0,dietary_decision,True,0,,Yes,1968.0,decision,butterfinger,1.0,0.0,ruffles,"{""health"":-2,""taste"":1}","{""health"":1,""taste"":2}",,
,577.0,,577.0,500.0,stim,single-stim-button,107,183932,0.0-107.0,dietary_decision,True,0,,Yes,577.0,decision,specialKbar,1.0,1.0,ruffles,"{""health"":1,""taste"":2}","{""health"":1,""taste"":2}",,
,432.0,,432.0,500.0,stim,single-stim-button,108,184870,0.0-108.0,dietary_decision,True,0,,Yes,432.0,decision,Oreos,1.0,2.0,ruffles,"{""health"":0,""taste"":1}","{""health"":1,""taste"":2}",,
,379.0,,379.0,500.0,stim,single-stim-button,109,185751,0.0-109.0,dietary_decision,True,0,,Yes,379.0,decision,raisins,1.0,3.0,ruffles,"{""health"":0,""taste"":2}","{""health"":1,""taste"":2}",,
,291.0,,291.0,500.0,stim,single-stim-button,110,186548,0.0-110.0,dietary_decision,True,0,,Yes,291.0,decision,100Grand,1.0,4.0,ruffles,"{""health"":-2,""taste"":1}","{""health"":1,""taste"":2}",,
,252.0,,252.0,500.0,stim,single-stim-button,111,187303,0.0-111.0,dietary_decision,True,0,,Neutral,252.0,decision,ffraspsorbet,0.0,5.0,ruffles,"{""health"":1,""taste"":2}","{""health"":1,""taste"":2}",,
,385.0,,385.0,500.0,stim,single-stim-button,112,188202,0.0-112.0,dietary_decision,True,0,,Yes,385.0,decision,FamousAmos,1.0,6.0,ruffles,"{""health"":-1,""taste"":2}","{""health"":1,""taste"":2}",,
,756.0,,756.0,500.0,stim,single-stim-button,113,189472,0.0-113.0,dietary_decision,True,0,,No,756.0,decision,uTwix,-1.0,7.0,ruffles,"{""health"":-1,""taste"":2}","{""health"":1,""taste"":2}",,
,400.0,,400.0,500.0,stim,single-stim-button,114,190375,0.0-114.0,dietary_decision,True,0,,Yes,400.0,decision,banana,1.0,8.0,ruffles,"{""health"":1,""taste"":2}","{""health"":1,""taste"":2}",,
,827.0,,827.0,500.0,stim,single-stim-button,115,191703,0.0-115.0,dietary_decision,True,0,,Neutral,827.0,decision,wwmuffin,0.0,9.0,ruffles,"{""health"":1,""taste"":1}","{""health"":1,""taste"":2}",,
,130.0,,130.0,500.0,stim,single-stim-button,116,192334,0.0-116.0,dietary_decision,True,0,,Yes,130.0,decision,sbdietbar,1.0,10.0,ruffles,"{""health"":""NaN"",""taste"":2}","{""health"":1,""taste"":2}",,
,792.0,,792.0,500.0,stim,single-stim-button,117,193643,0.0-117.0,dietary_decision,True,0,,Strong_Yes,792.0,decision,keeblerrainbow,2.0,11.0,ruffles,"{""health"":""NaN"",""taste"":0}","{""health"":1,""taste"":2}",,
,219.0,,219.0,500.0,stim,single-stim-button,118,194368,0.0-118.0,dietary_decision,True,0,,Yes,219.0,decision,wwbrownie,1.0,12.0,ruffles,"{""health"":-1,""taste"":2}","{""health"":1,""taste"":2}",,
,240.0,,240.0,500.0,stim,single-stim-button,119,195119,0.0-119.0,dietary_decision,True,0,,Strong_Yes,240.0,decision,wheatcrisps,2.0,13.0,ruffles,"{""health"":-1,""taste"":2}","{""health"":1,""taste"":2}",,
,153.0,,153.0,500.0,stim,single-stim-button,120,195782,0.0-120.0,dietary_decision,True,0,,Yes,153.0,decision,strawberries,1.0,14.0,ruffles,"{""health"":1,""taste"":2}","{""health"":1,""taste"":2}",,
,286.0,,286.0,500.0,stim,single-stim-button,121,196571,0.0-121.0,dietary_decision,True,0,,Neutral,286.0,decision,carrots,0.0,15.0,ruffles,"{""health"":1,""taste"":1}","{""health"":1,""taste"":2}",,
,163.0,,163.0,500.0,stim,single-stim-button,122,197237,0.0-122.0,dietary_decision,True,0,,Yes,163.0,decision,Lindt,1.0,16.0,ruffles,"{""health"":-1,""taste"":2}","{""health"":1,""taste"":2}",,
,645.0,,645.0,500.0,stim,single-stim-button,123,198389,0.0-123.0,dietary_decision,True,0,,Neutral,645.0,decision,mixedyogart,0.0,17.0,ruffles,"{""health"":1,""taste"":2}","{""health"":1,""taste"":2}",,
,73.0,,73.0,500.0,stim,single-stim-button,124,198966,0.0-124.0,dietary_decision,True,0,,Yes,73.0,decision,cookiencream,1.0,18.0,ruffles,"{""health"":1,""taste"":""NaN""}","{""health"":1,""taste"":2}",,
,138.0,,138.0,500.0,stim,single-stim-button,125,199610,0.0-125.0,dietary_decision,True,0,,Yes,138.0,decision,grannysmith,1.0,19.0,ruffles,"{""health"":-1,""taste"":2}","{""health"":1,""taste"":2}",,
,148.0,,148.0,500.0,stim,single-stim-button,126,200274,0.0-126.0,dietary_decision,True,0,,Neutral,148.0,decision,ChipsAhoy,0.0,20.0,ruffles,"{""health"":""NaN"",""taste"":2}","{""health"":1,""taste"":2}",,
,135.0,,135.0,500.0,stim,single-stim-button,127,200917,0.0-127.0,dietary_decision,True,0,,Yes,135.0,decision,cranberries,1.0,21.0,ruffles,"{""health"":1,""taste"":2}","{""health"":1,""taste"":2}",,
,142.0,,142.0,500.0,stim,single-stim-button,128,201563,0.0-128.0,dietary_decision,True,0,,Neutral,142.0,decision,Doritosranch,0.0,22.0,ruffles,"{""health"":-1,""taste"":0}","{""health"":1,""taste"":2}",,
,145.0,,145.0,500.0,stim,single-stim-button,129,202215,0.0-129.0,dietary_decision,True,0,,Yes,145.0,decision,MrsFields,1.0,23.0,ruffles,"{""health"":-2,""taste"":1}","{""health"":1,""taste"":2}",,
,562.0,,562.0,500.0,stim,single-stim-button,130,203281,0.0-130.0,dietary_decision,True,0,,Neutral,562.0,decision,Ghiradelli,0.0,24.0,ruffles,"{""health"":-2,""taste"":2}","{""health"":1,""taste"":2}",,
,221.0,,221.0,500.0,stim,single-stim-button,131,204015,0.0-131.0,dietary_decision,True,0,,Yes,221.0,decision,orange,1.0,25.0,ruffles,"{""health"":1,""taste"":0}","{""health"":1,""taste"":2}",,
,160.0,,160.0,500.0,stim,single-stim-button,132,204697,0.0-132.0,dietary_decision,True,0,,Yes,160.0,decision,FlamingCheetos,1.0,26.0,ruffles,"{""health"":-1,""taste"":2}","{""health"":1,""taste"":2}",,
,136.0,,136.0,500.0,stim,single-stim-button,133,205335,0.0-133.0,dietary_decision,True,0,,Yes,136.0,decision,HoHo,1.0,27.0,ruffles,"{""health"":1,""taste"":2}","{""health"":1,""taste"":2}",,
,273.0,,273.0,500.0,stim,single-stim-button,134,206112,0.0-134.0,dietary_decision,True,0,,Neutral,273.0,decision,cellery,0.0,28.0,ruffles,"{""health"":1,""taste"":0}","{""health"":1,""taste"":2}",,
,310.0,,310.0,500.0,stim,single-stim-button,135,206928,0.0-135.0,dietary_decision,True,0,,Yes,310.0,decision,frozenyogart,1.0,29.0,ruffles,"{""health"":1,""taste"":1}","{""health"":1,""taste"":2}",,
,169.0,,169.0,500.0,stim,single-stim-button,136,207602,0.0-136.0,dietary_decision,True,0,,Yes,169.0,decision,reddelicious,1.0,30.0,ruffles,"{""health"":1,""taste"":1}","{""health"":1,""taste"":2}",,
,166.0,,166.0,500.0,stim,single-stim-button,137,208276,0.0-137.0,dietary_decision,True,0,,Yes,166.0,decision,KitKat,1.0,31.0,ruffles,"{""health"":-1,""taste"":2}","{""health"":1,""taste"":2}",,
,201.0,,201.0,500.0,stim,single-stim-button,138,208982,0.0-138.0,dietary_decision,True,0,,Yes,201.0,decision,strussel,1.0,32.0,ruffles,"{""health"":0,""taste"":0}","{""health"":1,""taste"":2}",,
,89.0,,89.0,500.0,stim,single-stim-button,139,209584,0.0-139.0,dietary_decision,True,0,,Yes,89.0,decision,orangejello,1.0,33.0,ruffles,"{""health"":1,""taste"":2}","{""health"":1,""taste"":2}",,
,346.0,,346.0,500.0,stim,single-stim-button,140,210436,0.0-140.0,dietary_decision,True,0,,Yes,346.0,decision,slimfastC,1.0,34.0,ruffles,"{""health"":1,""taste"":1}","{""health"":1,""taste"":2}",,
,630.0,,630.0,500.0,stim,single-stim-button,141,211573,0.0-141.0,dietary_decision,True,0,,Yes,630.0,decision,RiceKrispyTreat,1.0,35.0,ruffles,"{""health"":0,""taste"":0}","{""health"":1,""taste"":2}",,
,328.0,,328.0,500.0,stim,single-stim-button,142,212407,0.0-142.0,dietary_decision,True,0,,Yes,328.0,decision,redgrapes,1.0,36.0,ruffles,"{""health"":2,""taste"":2}","{""health"":1,""taste"":2}",,
,266.0,,266.0,500.0,stim,single-stim-button,143,213176,0.0-143.0,dietary_decision,True,0,,Yes,266.0,decision,Reeses,1.0,37.0,ruffles,"{""health"":1,""taste"":2}","{""health"":1,""taste"":2}",,
,221.0,,221.0,500.0,stim,single-stim-button,144,213902,0.0-144.0,dietary_decision,True,0,,Yes,221.0,decision,sbcrackers,1.0,38.0,ruffles,"{""health"":1,""taste"":0}","{""health"":1,""taste"":2}",,
,574.0,,574.0,500.0,stim,single-stim-button,145,214977,0.0-145.0,dietary_decision,True,0,,Neutral,574.0,decision,blueberryyogart,0.0,39.0,ruffles,"{""health"":1,""taste"":1}","{""health"":1,""taste"":2}",,
,162.0,,162.0,500.0,stim,single-stim-button,146,215644,0.0-146.0,dietary_decision,True,0,,Yes,162.0,decision,brocollincauliflower,1.0,40.0,ruffles,"{""health"":1,""taste"":0}","{""health"":1,""taste"":2}",,
,144.0,,144.0,500.0,stim,single-stim-button,147,216303,0.0-147.0,dietary_decision,True,0,,Strong_Yes,144.0,decision,uToberlorone,2.0,41.0,ruffles,"{""health"":-1,""taste"":2}","{""health"":1,""taste"":2}",,
,197.0,,197.0,500.0,stim,single-stim-button,148,217010,0.0-148.0,dietary_decision,True,0,,Yes,197.0,decision,slimfastV,1.0,42.0,ruffles,"{""health"":0,""taste"":-1}","{""health"":1,""taste"":2}",,
,163.0,,163.0,500.0,stim,single-stim-button,149,217695,0.0-149.0,dietary_decision,True,0,,Strong_Yes,163.0,decision,cherryicecream,2.0,43.0,ruffles,"{""health"":""NaN"",""taste"":2}","{""health"":1,""taste"":2}",,
,718.0,,718.0,500.0,stim,single-stim-button,150,218915,0.0-150.0,dietary_decision,True,0,,Yes,718.0,decision,icecreamsandwich,1.0,44.0,ruffles,"{""health"":0,""taste"":1}","{""health"":1,""taste"":2}",,
,316.0,,316.0,500.0,stim,single-stim-button,151,219735,0.0-151.0,dietary_decision,True,0,,Strong_Yes,316.0,decision,laysclassic,2.0,45.0,ruffles,"{""health"":-1,""taste"":1}","{""health"":1,""taste"":2}",,
,-1.0,,4000.0,500.0,stim,single-stim-button,152,224254,0.0-152.0,dietary_decision,True,0,,-1,4000.0,decision,whitegrapes,-3.0,46.0,ruffles,"{""health"":1,""taste"":2}","{""health"":1,""taste"":2}",,
,1068.0,,1068.0,500.0,stim,single-stim-button,153,225823,0.0-153.0,dietary_decision,True,0,,Yes,1068.0,decision,cookies,1.0,47.0,ruffles,"{""health"":1,""taste"":1}","{""health"":1,""taste"":2}",,
,139.0,,139.0,500.0,stim,single-stim-button,154,226468,0.0-154.0,dietary_decision,True,0,,Strong_Yes,139.0,decision,keeblerfudgestripes,2.0,48.0,ruffles,"{""health"":1,""taste"":1}","{""health"":1,""taste"":2}",,
,9152.0,,,,post task questions,survey-text,155,236140,0.0-155.0,dietary_decision,True,0,,,,,,,,,,,"{""Q0"":""na"",""Q1"":""an""}",
"<div class = centerbox><p class = ""center-block-text"">Thanks for completing this task!</p><p class = ""center-block-text"">Press <strong>enter</strong> to continue.</p></div>",1258.0,13.0,1258.0,0.0,end,poldrack-text,156,238414,0.0-156.0,dietary_decision,True,0,,,,,,,,,,,,True
